t ax ay az wx wy wz
0.0600 0.8628644 9.3592248 -1.4821791 -0.0599560 -0.0040498 0.0587558
0.0800 1.9558050 9.3423493 -1.4187709 -0.0443913 -0.0051756 0.0475256
0.1000 3.0454268 9.3259989 -1.3542791 -0.0290169 -0.0064503 0.0362055
0.1200 4.1306571 9.3100773 -1.2893446 -0.0138265 -0.0078723 0.0247932
0.1400 5.2087488 9.2947601 -1.2236020 0.0011867 -0.0094395 0.0132860
0.1600 6.2783283 9.2800060 -1.1573497 0.0160304 -0.0111499 0.0016812
0.1800 7.3380054 9.2657752 -1.0909914 0.0307131 -0.0130010 -0.0100240
0.2000 8.3849726 9.2522562 -1.0242024 0.0452439 -0.0149901 -0.0218327
0.2200 9.4181441 9.2393723 -0.9572815 0.0596328 -0.0171140 -0.0337482
0.2400 10.4354690 9.2271950 -0.8903731 0.0738902 -0.0193697 -0.0457737
0.2600 11.4356713 9.2156861 -0.8236205 0.0880273 -0.0217535 -0.0579127
0.2800 12.4165365 9.2049508 -0.7570751 0.1020557 -0.0242617 -0.0701688
0.3000 13.3765706 9.1949942 -0.6907735 0.1159877 -0.0268902 -0.0825457
0.3200 14.3144107 9.1858001 -0.6250016 0.1298359 -0.0296349 -0.0950474
0.3400 15.2283272 9.1774172 -0.5598215 0.1436134 -0.0324913 -0.1076776
0.3600 16.1164749 9.1699245 -0.4950025 0.1573337 -0.0354546 -0.1204404
0.3800 16.9786654 9.1631347 -0.4314562 0.1710106 -0.0385201 -0.1333399
0.4000 17.8120801 9.1572956 -0.3684036 0.1846582 -0.0416827 -0.1463802
0.4200 18.6159775 9.1523229 -0.3064095 0.1982906 -0.0449371 -0.1595655
0.4400 19.3895679 9.1481592 -0.2455703 0.2119225 -0.0482781 -0.1729001
0.4600 20.1309185 9.1449235 -0.1858601 0.2255682 -0.0516999 -0.1863881
0.4800 20.8396541 9.1425100 -0.1274874 0.2392424 -0.0551971 -0.2000340
0.5000 21.5139337 9.1410434 -0.0703101 0.2529597 -0.0587639 -0.2138419
0.5200 22.1537133 9.1403772 -0.0148322 0.2667344 -0.0623942 -0.2278161
0.5400 22.7572758 9.1406420 0.0393557 0.2805810 -0.0660822 -0.2419608
0.5600 23.3245689 9.1417091 0.0917253 0.2945137 -0.0698219 -0.2562802
0.5800 23.8538638 9.1437274 0.1426810 0.3085463 -0.0736070 -0.2707783
0.6000 24.3457798 9.1464845 0.1915443 0.3226924 -0.0774315 -0.2854592
0.6200 24.7990752 9.1500782 0.2387533 0.3369652 -0.0812891 -0.3003269
0.6400 25.2127020 9.1545700 0.2841634 0.3513777 -0.0851737 -0.3153850
0.6600 25.5877071 9.1597229 0.3274109 0.3659420 -0.0890791 -0.3306373
0.6800 25.9224769 9.1657106 0.3687632 0.3806699 -0.0929992 -0.3460874
0.7000 26.2172440 9.1724398 0.4081222 0.3955727 -0.0969277 -0.3617385
0.7200 26.4721284 9.1798404 0.4453005 0.4106608 -0.1008586 -0.3775939
0.7400 26.6866796 9.1879413 0.4803663 0.4259440 -0.1047859 -0.3936565
0.7600 26.8609051 9.1967133 0.5133336 0.4414315 -0.1087037 -0.4099292
0.7800 26.9952126 9.2060748 0.5440614 0.4571314 -0.1126062 -0.4264144
0.8000 27.0900069 9.2159536 0.5723857 0.4730512 -0.1164875 -0.4431145
0.8200 27.1443575 9.2265007 0.5989006 0.4891972 -0.1203422 -0.4600314
0.8400 27.1600530 9.2374451 0.6228076 0.5055752 -0.1241648 -0.4771669
0.8600 27.1368279 9.2488559 0.6445222 0.5221896 -0.1279500 -0.4945225
0.8800 27.0749476 9.2607273 0.6641903 0.5390440 -0.1316928 -0.5120992
0.9000 26.9758684 9.2728684 0.6811841 0.5561408 -0.1353881 -0.5298978
0.9200 26.8391829 9.2854075 0.6963073 0.5734814 -0.1390313 -0.5479189
0.9400 26.6659534 9.2982331 0.7091183 0.5910660 -0.1426180 -0.5661623
0.9600 26.4577712 9.3111792 0.7195437 0.6088937 -0.1461437 -0.5846279
0.9800 26.2141399 9.3243962 0.7279021 0.6269624 -0.1496046 -0.6033150
1.0000 25.9371171 9.3376669 0.7340675 0.6452687 -0.1529967 -0.6222223
1.0200 25.6271932 9.3510062 0.7379901 0.6638082 -0.1563167 -0.6413484
1.0400 25.2852208 9.3643952 0.7399306 0.6825751 -0.1595612 -0.6606913
1.0600 24.9127955 9.3777020 0.7396634 0.7015622 -0.1627272 -0.6802486
1.0800 24.5105338 9.3909568 0.7374884 0.7207613 -0.1658122 -0.7000174
1.1000 24.0802614 9.4040084 0.7331443 0.7401628 -0.1688136 -0.7199943
1.1200 23.6224691 9.4169241 0.7271180 0.7597559 -0.1717295 -0.7401755
1.1400 23.1391183 9.4295417 0.7190002 0.7795284 -0.1745581 -0.7605567
1.1600 22.6313187 9.4418458 0.7090257 0.7994669 -0.1772978 -0.7811329
1.1800 22.1001605 9.4538288 0.6974109 0.8195569 -0.1799477 -0.8018989
1.2000 21.5474787 9.4653722 0.6840114 0.8397822 -0.1825068 -0.8228488
1.2200 20.9743347 9.4764795 0.6689499 0.8601259 -0.1849747 -0.8439762
1.2400 20.3823112 9.4870897 0.6524337 0.8805696 -0.1873512 -0.8652742
1.2600 19.7731777 9.4971036 0.6341965 0.9010937 -0.1896365 -0.8867351
1.2800 19.1478979 9.5065623 0.6146763 0.9216776 -0.1918312 -0.9083512
1.3000 18.5084113 9.5153572 0.5937754 0.9422993 -0.1939361 -0.9301138
1.3200 17.8561169 9.5234610 0.5714931 0.9629359 -0.1959522 -0.9520137
1.3400 17.1923874 9.5308609 0.5480512 0.9835634 -0.1978812 -0.9740414
1.3600 16.5191400 9.5374635 0.5234197 1.0041567 -0.1997248 -0.9961865
1.3800 15.8372408 9.5433326 0.4978842 1.0246897 -0.2014852 -1.0184385
1.4000 15.1490435 9.5483119 0.4711934 1.0451356 -0.2031648 -1.0407859
1.4200 14.4553923 9.5524743 0.4437045 1.0654664 -0.2047664 -1.0632169
1.4400 13.7582730 9.5557242 0.4153608 1.0856534 -0.2062929 -1.0857191
1.4600 13.0589233 9.5580750 0.3862849 1.1056671 -0.2077478 -1.1082796
1.4800 12.3590746 9.5594688 0.3564644 1.1254772 -0.2091347 -1.1308850
1.5000 11.6594259 9.5600054 0.3263651 1.1450529 -0.2104574 -1.1535213
1.5200 10.9626422 9.5594814 0.2954267 1.1643625 -0.2117201 -1.1761739
1.5400 10.2692617 9.5580229 0.2642447 1.1833742 -0.2129272 -1.1988280
1.5600 9.5811250 9.5555497 0.2326054 1.2020553 -0.2140835 -1.2214681
1.5800 8.8989330 9.5521568 0.2009136 1.2203728 -0.2151936 -1.2440781
1.6000 8.2247357 9.5477313 0.1688814 1.2382935 -0.2162628 -1.2666417
1.6200 7.5594256 9.5423365 0.1368267 1.2557839 -0.2172963 -1.2891421
1.6400 6.9042373 9.5359756 0.1047493 1.2728101 -0.2182997 -1.3115619
1.6600 6.2608120 9.5285926 0.0725509 1.2893383 -0.2192784 -1.3338834
1.6800 5.6294225 9.5203335 0.0407463 1.3053347 -0.2202384 -1.3560885
1.7000 5.0120556 9.5110774 0.0088881 1.3207652 -0.2211856 -1.3781588
1.7200 4.4091637 9.5009387 -0.0225669 1.3355963 -0.2221261 -1.4000753
1.7400 3.8221667 9.4898770 -0.0537684 1.3497942 -0.2230660 -1.4218190
1.7600 3.2517809 9.4779470 -0.0846800 1.3633257 -0.2240116 -1.4433703
1.7800 2.6985286 9.4652435 -0.1148471 1.3761578 -0.2249692 -1.4647094
1.8000 2.1638804 9.4516950 -0.1447161 1.3882579 -0.2259453 -1.4858164
1.8200 1.6488425 9.4373114 -0.1741730 1.3995941 -0.2269463 -1.5066708
1.8400 1.1527924 9.4223255 -0.2026296 1.4101349 -0.2279786 -1.5272523
1.8600 0.6780047 9.4065367 -0.2308511 1.4198495 -0.2290486 -1.5475401
1.8800 0.2234871 9.3902309 -0.2578926 1.4287078 -0.2301630 -1.5675135
1.9000 -0.2082827 9.3731645 -0.2847127 1.4366806 -0.2313279 -1.5871514
1.9200 -0.6189715 9.3557021 -0.3102330 1.4437395 -0.2325499 -1.6064329
1.9400 -1.0067637 9.3376821 -0.3351989 1.4498570 -0.2338353 -1.6253368
1.9600 -1.3716331 9.3192176 -0.3591669 1.4550069 -0.2351901 -1.6438420
1.9800 -1.7134385 9.3003724 -0.3822648 1.4591638 -0.2366207 -1.6619273
2.0000 -2.0316955 9.2811677 -0.4045235 1.4623037 -0.2381330 -1.6795718
2.0200 -2.3267064 9.2617312 -0.4256348 1.4644035 -0.2397328 -1.6967543
2.0400 -2.5976877 9.2420197 -0.4459451 1.4654418 -0.2414259 -1.7134539
2.0600 -2.8457960 9.2222645 -0.4648716 1.4653982 -0.2432179 -1.7296499
2.0800 -3.0690489 9.2022375 -0.4833271 1.4642539 -0.2451141 -1.7453217
2.1000 -3.2698235 9.1823287 -0.5002131 1.4619917 -0.2471199 -1.7604489
2.1200 -3.4463592 9.1623241 -0.5164418 1.4585956 -0.2492401 -1.7750114
2.1400 -3.6000309 9.1424600 -0.5313106 1.4540513 -0.2514795 -1.7889893
2.1600 -3.7305540 9.1227067 -0.5452928 1.4483462 -0.2538427 -1.8023631
2.1800 -3.8385219 9.1031748 -0.5580561 1.4414693 -0.2563341 -1.8151136
2.2000 -3.9238235 9.0838512 -0.5699024 1.4334112 -0.2589576 -1.8272221
2.2200 -3.9872983 9.0648545 -0.5806175 1.4241645 -0.2617172 -1.8386703
2.2400 -4.0292316 9.0462209 -0.5902041 1.4137232 -0.2646162 -1.8494403
2.2600 -4.0503517 9.0280280 -0.5986938 1.4020833 -0.2676580 -1.8595146
2.2800 -4.0503331 9.0102093 -0.6064468 1.3892426 -0.2708455 -1.8688766
2.3000 -4.0310484 8.9929966 -0.6128272 1.3752008 -0.2741815 -1.8775100
2.3200 -3.9922702 8.9763154 -0.6182976 1.3599592 -0.2776681 -1.8853990
2.3400 -3.9344781 8.9601884 -0.6229148 1.3435213 -0.2813076 -1.8925288
2.3600 -3.8592252 8.9447731 -0.6263401 1.3258923 -0.2851017 -1.8988851
2.3800 -3.7664683 8.9300011 -0.6289802 1.3070792 -0.2890517 -1.9044542
2.4000 -3.6573005 8.9159593 -0.6306244 1.2870911 -0.2931588 -1.9092232
2.4200 -3.5322873 8.9026517 -0.6313908 1.2659386 -0.2974238 -1.9131802
2.4400 -3.3928328 8.8901803 -0.6311684 1.2436347 -0.3018471 -1.9163138
2.4600 -3.2384343 8.8783999 -0.6304663 1.2201937 -0.3064289 -1.9186136
2.4800 -3.0716874 8.8675680 -0.6285284 1.1956322 -0.3111690 -1.9200700
2.5000 -2.8921673 8.8575231 -0.6260961 1.1699683 -0.3160668 -1.9206743
2.5200 -2.7014125 8.8483812 -0.6227232 1.1432221 -0.3211215 -1.9204187
2.5400 -2.4994410 8.8400281 -0.6190070 1.1154152 -0.3263319 -1.9192965
2.5600 -2.2888018 8.8326965 -0.6141534 1.0865713 -0.3316966 -1.9173016
2.5800 -2.0684638 8.8261373 -0.6090621 1.0567156 -0.3372138 -1.9144293
2.6000 -1.8408422 8.8205438 -0.6031909 1.0258748 -0.3428812 -1.9106756
2.6200 -1.6060987 8.8158234 -0.5968110 0.9940775 -0.3486966 -1.9060376
2.6400 -1.3652042 8.8119737 -0.5900204 0.9613538 -0.3546570 -1.9005136
2.6600 -1.1193393 8.8090303 -0.5826157 0.9277352 -0.3607596 -1.8941026
2.6800 -0.8693195 8.8069572 -0.5748752 0.8932547 -0.3670009 -1.8868050
2.7000 -0.6158735 8.8057313 -0.5667314 0.8579469 -0.3733774 -1.8786222
2.7200 -0.3599981 8.8053453 -0.5582457 0.8218474 -0.3798851 -1.8695565
2.7400 -0.1027026 8.8057919 -0.5494658 0.7849934 -0.3865198 -1.8596114
2.7600 0.1555105 8.8070119 -0.5404724 0.7474233 -0.3932771 -1.8487917
2.7800 0.4132197 8.8090493 -0.5311043 0.7091764 -0.4001522 -1.8371029
2.8000 0.6700821 8.8118175 -0.5216011 0.6702933 -0.4071403 -1.8245520
2.8200 0.9253236 8.8152787 -0.5120866 0.6308156 -0.4142360 -1.8111468
2.8400 1.1779957 8.8194294 -0.5024262 0.5907858 -0.4214339 -1.7968963
2.8600 1.4271686 8.8242600 -0.4925522 0.5502472 -0.4287284 -1.7818106
2.8800 1.6722349 8.8297079 -0.4827323 0.5092441 -0.4361135 -1.7659010
2.9000 1.9129094 8.8356963 -0.4730444 0.4678212 -0.4435831 -1.7491798
2.9200 2.1474472 8.8423213 -0.4630093 0.4260239 -0.4511309 -1.7316601
2.9400 2.3766964 8.8493542 -0.4534510 0.3838984 -0.4587504 -1.7133565
2.9600 2.5989361 8.8568940 -0.4438653 0.3414911 -0.4664349 -1.6942844
2.9800 2.8136785 8.8648957 -0.4342409 0.2988489 -0.4741775 -1.6744602
3.0000 3.0207734 8.8732640 -0.4248961 0.2560187 -0.4819713 -1.6539014
3.0200 3.2195443 8.8819853 -0.4156984 0.2130481 -0.4898090 -1.6326264
3.0400 3.4098805 8.8909724 -0.4068967 0.1699843 -0.4976833 -1.6106547
3.0600 3.5900720 8.9003351 -0.3979659 0.1268750 -0.5055867 -1.5880065
3.0800 3.7615134 8.9098331 -0.3895803 0.0837674 -0.5135118 -1.5647032
3.1000 3.9224337 8.9195813 -0.3813067 0.0407089 -0.5214506 -1.5407669
3.1200 4.0729967 8.9294862 -0.3733629 -0.0022534 -0.5293956 -1.5162206
3.1400 4.2133888 8.9394682 -0.3658132 -0.0450729 -0.5373387 -1.4910880
3.1600 4.3420861 8.9496217 -0.3583559 -0.0877032 -0.5452720 -1.4653938
3.1800 4.4604868 8.9597418 -0.3515175 -0.1300984 -0.5531874 -1.4391634
3.2000 4.5669329 8.9699579 -0.3447714 -0.1722133 -0.5610768 -1.4124228
3.2200 4.6624201 8.9801171 -0.3385333 -0.2140031 -0.5689320 -1.3851988
3.2400 4.7460735 8.9902681 -0.3326156 -0.2554238 -0.5767448 -1.3575187
3.2600 4.8181260 9.0003584 -0.3270418 -0.2964324 -0.5845070 -1.3294106
3.2800 4.8787661 9.0103416 -0.3218778 -0.3369865 -0.5922102 -1.3009030
3.3000 4.9277268 9.0202116 -0.3172035 -0.3770447 -0.5998461 -1.2720249
3.3200 4.9645192 9.0300242 -0.3125365 -0.4165666 -0.6074065 -1.2428060
3.3400 4.9904486 9.0396076 -0.3086613 -0.4555130 -0.6148830 -1.2132762
3.3600 5.0048091 9.0490505 -0.3050084 -0.4938457 -0.6222675 -1.1834658
3.3800 5.0073710 9.0583654 -0.3016068 -0.5315277 -0.6295515 -1.1534056
3.4000 4.9996324 9.0674093 -0.2988473 -0.5685234 -0.6367268 -1.1231264
3.4200 4.9801280 9.0763396 -0.2961911 -0.6047983 -0.6437854 -1.0926596
3.4400 4.9502097 9.0850407 -0.2939360 -0.6403195 -0.6507191 -1.0620365
3.4600 4.9102412 9.0934817 -0.2923317 -0.6750554 -0.6575198 -1.0312886
3.4800 4.8595263 9.1017805 -0.2907136 -0.7089759 -0.6641795 -1.0004477
3.5000 4.7988894 9.1098671 -0.2894930 -0.7420523 -0.6706903 -0.9695453
3.5200 4.7292128 9.1176914 -0.2888032 -0.7742576 -0.6770445 -0.9386132
3.5400 4.6497752 9.1253708 -0.2881514 -0.8055664 -0.6832344 -0.9076831
3.5600 4.5617967 9.1328130 -0.2880141 -0.8359548 -0.6892523 -0.8767863
3.5800 4.4653999 9.1400618 -0.2881374 -0.8654007 -0.6950908 -0.8459543
3.6000 4.3604642 9.1471781 -0.2883117 -0.8938836 -0.7007427 -0.8152182
3.6200 4.2484155 9.1540622 -0.2890499 -0.9213846 -0.7062007 -0.7846090
3.6400 4.1288240 9.1608274 -0.2897807 -0.9478868 -0.7114578 -0.7541571
3.6600 4.0026947 9.1674171 -0.2909159 -0.9733749 -0.7165073 -0.7238930
3.6800 3.8701483 9.1738843 -0.2922342 -0.9978353 -0.7213425 -0.6938464
3.7000 3.7316909 9.1802432 -0.2936906 -1.0212562 -0.7259568 -0.6640468
3.7200 3.5877947 9.1865076 -0.2953126 -1.0436276 -0.7303441 -0.6345230
3.7400 3.4389934 9.1926946 -0.2970244 -1.0649414 -0.7344982 -0.6053035
3.7600 3.2862673 9.1987565 -0.2992656 -1.0851910 -0.7384134 -0.5764160
3.7800 3.1286795 9.2048771 -0.3010536 -1.1043718 -0.7420840 -0.5478877
3.8000 2.9683940 9.2108884 -0.3033920 -1.1224808 -0.7455047 -0.5197452
3.8200 2.8051387 9.2168935 -0.3058100 -1.1395168 -0.7486703 -0.4920141
3.8400 2.6388623 9.2229667 -0.3080211 -1.1554805 -0.7515759 -0.4647197
3.8600 2.4709775 9.2290284 -0.3105191 -1.1703740 -0.7542170 -0.4378861
3.8800 2.3014424 9.2351534 -0.3129860 -1.1842013 -0.7565893 -0.4115368
3.9000 2.1309157 9.2413402 -0.3155137 -1.1969681 -0.7586886 -0.3856944
3.9200 1.9600958 9.2475833 -0.3182019 -1.2086816 -0.7605113 -0.3603806
3.9400 1.7882869 9.2540162 -0.3204706 -1.2193507 -0.7620538 -0.3356161
3.9600 1.6179645 9.2604520 -0.3232953 -1.2289857 -0.7633131 -0.3114208
3.9800 1.4473938 9.2671211 -0.3256556 -1.2375988 -0.7642862 -0.2878134
4.0000 1.2785104 9.2738960 -0.3281303 -1.2452032 -0.7649708 -0.2648119
4.0200 1.1111513 9.2808377 -0.3306023 -1.2518141 -0.7653644 -0.2424330
4.0400 0.9456201 9.2879762 -0.3328856 -1.2574475 -0.7654654 -0.2206924
4.0600 0.7825475 9.2952915 -0.3352079 -1.2621214 -0.7652721 -0.1996047
4.0800 0.6222660 9.3028041 -0.3374391 -1.2658545 -0.7647834 -0.1791835
4.1000 0.4650150 9.3105335 -0.3395260 -1.2686673 -0.7639985 -0.1594412
4.1200 0.3112710 9.3184723 -0.3415534 -1.2705811 -0.7629167 -0.1403890
4.1400 0.1608659 9.3266703 -0.3433492 -1.2716185 -0.7615380 -0.1220371
4.1600 0.0150933 9.3350448 -0.3452308 -1.2718032 -0.7598625 -0.1043945
4.1800 -0.1270200 9.3437101 -0.3467806 -1.2711599 -0.7578908 -0.0874689
4.2000 -0.2639770 9.3525628 -0.3483438 -1.2697143 -0.7556238 -0.0712668
4.2200 -0.3965841 9.3616900 -0.3496695 -1.2674931 -0.7530628 -0.0557939
4.2400 -0.5237704 9.3710202 -0.3509713 -1.2645235 -0.7502092 -0.0410541
4.2600 -0.6465273 9.3806562 -0.3518415 -1.2608339 -0.7470652 -0.0270507
4.2800 -0.7627592 9.3904227 -0.3529893 -1.2564533 -0.7436329 -0.0137853
4.3000 -0.8742850 9.4004941 -0.3536403 -1.2514110 -0.7399151 -0.0012588
4.3200 -0.9800610 9.4107839 -0.3541140 -1.2457375 -0.7359147 0.0105296
4.3400 -1.0794998 9.4212313 -0.3548007 -1.2394632 -0.7316350 0.0215814
4.3600 -1.1737035 9.4319562 -0.3548406 -1.2326195 -0.7270796 0.0318996
4.3800 -1.2615283 9.4428330 -0.3550233 -1.2252377 -0.7222527 0.0414883
4.4000 -1.3433455 9.4538977 -0.3550154 -1.2173497 -0.7171583 0.0503526
4.4200 -1.4193327 9.4651598 -0.3546848 -1.2089876 -0.7118013 0.0584989
4.4400 -1.4888995 9.4765486 -0.3543745 -1.2001837 -0.7061864 0.0659347
4.4600 -1.5526551 9.4881058 -0.3538174 -1.1909703 -0.7003189 0.0726684
4.4800 -1.6103839 9.4997990 -0.3530288 -1.1813800 -0.6942044 0.0787098
4.5000 -1.6616972 9.5115711 -0.3522419 -1.1714450 -0.6878484 0.0840695
4.5200 -1.7074334 9.5234730 -0.3511868 -1.1611978 -0.6812572 0.0887594
4.5400 -1.7471796 9.5354480 -0.3499824 -1.1506705 -0.6744371 0.0927920
4.5600 -1.7811382 9.5474888 -0.3485693 -1.1398952 -0.6673944 0.0961812
4.5800 -1.8089929 9.5595325 -0.3472634 -1.1289035 -0.6601361 0.0989416
4.6000 -1.8318974 9.5716608 -0.3454714 -1.1177270 -0.6526692 0.1010889
4.6200 -1.8485238 9.5837184 -0.3439180 -1.1063965 -0.6450008 0.1026396
4.6400 -1.8606961 9.5958378 -0.3418545 -1.0949428 -0.6371384 0.1036110
4.6600 -1.8672137 9.6078789 -0.3398332 -1.0833959 -0.6290895 0.1040214
4.6800 -1.8685574 9.6198456 -0.3378144 -1.0717854 -0.6208619 0.1038898
4.7000 -1.8653225 9.6317602 -0.3355106 -1.0601402 -0.6124635 0.1032358
4.7200 -1.8575812 9.6435878 -0.3330752 -1.0484887 -0.6039023 0.1020801
4.7400 -1.8451276 9.6552773 -0.3305771 -1.0368585 -0.5951866 0.1004437
4.7600 -1.8282710 9.6668121 -0.3281201 -1.0252764 -0.5863246 0.0983485
4.7800 -1.8075966 9.6782116 -0.3254197 -1.0137687 -0.5773246 0.0958168
4.8000 -1.7833467 9.6894583 -0.3224813 -1.0023606 -0.5681952 0.0928717
4.8200 -1.7548208 9.7004473 -0.3198095 -0.9910765 -0.5589448 0.0895367
4.8400 -1.7234155 9.7112682 -0.3168078 -0.9799399 -0.5495820 0.0858356
4.8600 -1.6883969 9.7218165 -0.3139379 -0.9689736 -0.5401154 0.0817929
4.8800 -1.6511794 9.7321838 -0.3105892 -0.9581992 -0.5305537 0.0774335
4.9000 -1.6102793 9.7421933 -0.3077226 -0.9476373 -0.5209054 0.0727823
4.9200 -1.5676668 9.7519925 -0.3043520 -0.9373077 -0.5111792 0.0678650
4.9400 -1.5222426 9.7614407 -0.3012587 -0.9272289 -0.5013837 0.0627071
4.9600 -1.4750179 9.7705992 -0.2979482 -0.9174186 -0.4915274 0.0573345
4.9800 -1.4262711 9.7794538 -0.2945234 -0.9078933 -0.4816187 0.0517735
5.0000 -1.3754083 9.7879249 -0.2912383 -0.8986684 -0.4716663 0.0460501
5.0200 -1.3233262 9.7960550 -0.2879216 -0.8897582 -0.4616783 0.0401906
5.0400 -1.2702219 9.8038361 -0.2844871 -0.8811760 -0.4516630 0.0342214
5.0600 -1.2163641 9.8112606 -0.2809806 -0.8729339 -0.4416287 0.0281688
5.0800 -1.1611698 9.8182551 -0.2776541 -0.8650428 -0.4315832 0.0220589
5.1000 -1.1059215 9.8249001 -0.2741972 -0.8575127 -0.4215346 0.0159180
5.1200 -1.0500271 9.8311262 -0.2708189 -0.8503522 -0.4114906 0.0097721
5.1400 -0.9943119 9.8369824 -0.2672805 -0.8435691 -0.4014588 0.0036470
5.1600 -0.9384459 9.8424201 -0.2638050 -0.8371697 -0.3914466 -0.0024318
5.1800 -0.8824661 9.8474203 -0.2605759 -0.8311594 -0.3814613 -0.0084389
5.2000 -0.8271487 9.8520432 -0.2570937 -0.8255427 -0.3715100 -0.0143492
5.2200 -0.7723991 9.8562595 -0.2536541 -0.8203226 -0.3615995 -0.0201381
5.2400 -0.7177698 9.8600216 -0.2504337 -0.8155014 -0.3517366 -0.0257814
5.2600 -0.6647779 9.8634475 -0.2469060 -0.8110801 -0.3419278 -0.0312550
5.2800 -0.6115746 9.8663716 -0.2438925 -0.8070587 -0.3321793 -0.0365357
5.3000 -0.5603792 9.8689822 -0.2403731 -0.8034363 -0.3224972 -0.0416006
5.3200 -0.5096869 9.8711376 -0.2372848 -0.8002109 -0.3128873 -0.0464272
5.3400 -0.4604400 9.8729243 -0.2340384 -0.7973796 -0.3033553 -0.0509937
5.3600 -0.4123040 9.8743079 -0.2309775 -0.7949385 -0.2939063 -0.0552790
5.3800 -0.3656461 9.8753260 -0.2278501 -0.7928827 -0.2845457 -0.0592625
5.4000 -0.3203281 9.8759672 -0.2248309 -0.7912067 -0.2752782 -0.0629241
5.4200 -0.2767232 9.8762703 -0.2217436 -0.7899038 -0.2661085 -0.0662447
5.4400 -0.2342625 9.8761931 -0.2188889 -0.7889667 -0.2570409 -0.0692058
5.4600 -0.1935541 9.8757957 -0.2160367 -0.7883872 -0.2480796 -0.0717894
5.4800 -0.1543581 9.8750736 -0.2131596 -0.7881564 -0.2392284 -0.0739787
5.5000 -0.1167274 9.8740377 -0.2104168 -0.7882647 -0.2304909 -0.0757572
5.5200 -0.0808831 9.8727206 -0.2077173 -0.7887017 -0.2218706 -0.0771097
5.5400 -0.0464880 9.8711183 -0.2049524 -0.7894566 -0.2133704 -0.0780213
5.5600 -0.0135351 9.8692345 -0.2025007 -0.7905176 -0.2049933 -0.0784784
5.5800 0.0177463 9.8671179 -0.1999254 -0.7918727 -0.1967419 -0.0784679
5.6000 0.0474576 9.8647717 -0.1975043 -0.7935091 -0.1886185 -0.0779779
5.6200 0.0756801 9.8622171 -0.1950423 -0.7954138 -0.1806252 -0.0769971
5.6400 0.1025926 9.8594569 -0.1927375 -0.7975731 -0.1727639 -0.0755151
5.6600 0.1279840 9.8565320 -0.1904686 -0.7999729 -0.1650362 -0.0735226
5.6800 0.1518990 9.8534637 -0.1882024 -0.8025990 -0.1574434 -0.0710112
5.7000 0.1749554 9.8502270 -0.1861468 -0.8054365 -0.1499867 -0.0679731
5.7200 0.1961509 9.8469293 -0.1838644 -0.8084705 -0.1426671 -0.0644018
5.7400 0.2168792 9.8434784 -0.1820477 -0.8116858 -0.1354851 -0.0602915
5.7600 0.2362275 9.8399849 -0.1799937 -0.8150669 -0.1284413 -0.0556374
5.7800 0.2545470 9.8364378 -0.1781193 -0.8185982 -0.1215359 -0.0504356
5.8000 0.2718770 9.8328678 -0.1762033 -0.8222640 -0.1147690 -0.0446831
5.8200 0.2884681 9.8292811 -0.1743515 -0.8260484 -0.1081404 -0.0383779
5.8400 0.3044937 9.8256892 -0.1726748 -0.8299357 -0.1016496 -0.0315188
5.8600 0.3195745 9.8221517 -0.1709523 -0.8339100 -0.0952963 -0.0241056
5.8800 0.3343874 9.8186442 -0.1693373 -0.8379555 -0.0890796 -0.0161390
5.9000 0.3484847 9.8152272 -0.1677209 -0.8420565 -0.0829986 -0.0076205
5.9200 0.3621341 9.8119089 -0.1660875 -0.8461972 -0.0770522 0.0014474
5.9400 0.3759222 9.8086665 -0.1647333 -0.8503623 -0.0712392 0.0110614
5.9600 0.3889135 9.8056062 -0.1630760 -0.8545364 -0.0655582 0.0212174
5.9800 0.4022691 9.8026541 -0.1617866 -0.8587045 -0.0600076 0.0319104
6.0000 0.4152716 9.7999000 -0.1602833 -0.8628516 -0.0545857 0.0431344
6.0200 0.4284856 9.7973179 -0.1589563 -0.8669633 -0.0492907 0.0548829
6.0400 0.4419616 9.7949295 -0.1577113 -0.8710252 -0.0441206 0.0671484
6.0600 0.4549244 9.7928214 -0.1561194 -0.8750235 -0.0390734 0.0799227
6.0800 0.4691479 9.7908684 -0.1550878 -0.8789446 -0.0341468 0.0931968
6.1000 0.4830918 9.7892191 -0.1537552 -0.8827752 -0.0293386 0.1069609
6.1200 0.4977744 9.7878114 -0.1525278 -0.8865028 -0.0246463 0.1212047
6.1400 0.5123739 9.7867257 -0.1511690 -0.8901149 -0.0200676 0.1359170
6.1600 0.5281430 9.7858837 -0.1500031 -0.8935997 -0.0155999 0.1510860
6.1800 0.5442371 9.7853623 -0.1489008 -0.8969459 -0.0112405 0.1666993
6.2000 0.5607740 9.7851758 -0.1475071 -0.9001426 -0.0069868 0.1827437
6.2200 0.5782291 9.7852895 -0.1464135 -0.9031794 -0.0028361 0.1992057
6.2400 0.5963147 9.7857439 -0.1452378 -0.9060466 0.0012145 0.2160709
6.2600 0.6148216 9.7865662 -0.1438412 -0.9087349 0.0051677 0.2333246
6.2800 0.6347177 9.7876836 -0.1428286 -0.9112356 0.0090264 0.2509514
6.3000 0.6548138 9.7892007 -0.1415462 -0.9135407 0.0127935 0.2689354
6.3200 0.6759729 9.7910546 -0.1403590 -0.9156426 0.0164718 0.2872605
6.3400 0.6977394 9.7932860 -0.1390440 -0.9175345 0.0200643 0.3059098
6.3600 0.7201375 9.7958933 -0.1377061 -0.9192100 0.0235739 0.3248662
6.3800 0.7439626 9.7988163 -0.1366072 -0.9206635 0.0270033 0.3441122
6.4000 0.7678199 9.8021642 -0.1351903 -0.9218900 0.0303556 0.3636297
6.4200 0.7926897 9.8058576 -0.1338714 -0.9228849 0.0336335 0.3834006
6.4400 0.8186115 9.8098905 -0.1326484 -0.9236446 0.0368399 0.4034064
6.4600 0.8445200 9.8143411 -0.1311297 -0.9241658 0.0399776 0.4236281
6.4800 0.8716791 9.8191043 -0.1298125 -0.9244460 0.0430494 0.4440467
6.5000 0.8992129 9.8242407 -0.1283881 -0.9244834 0.0460579 0.4646429
6.5200 0.9271616 9.8297384 -0.1268768 -0.9242765 0.0490057 0.4853971
6.5400 0.9561118 9.8355415 -0.1255057 -0.9238248 0.0518956 0.5062897
6.5600 0.9848403 9.8417343 -0.1238218 -0.9231282 0.0547300 0.5273009
6.5800 1.0147161 9.8481948 -0.1224863 -0.9221872 0.0575114 0.5484106
6.6000 1.0441748 9.8550355 -0.1207289 -0.9210032 0.0602422 0.5695989
6.6200 1.0743777 9.8621479 -0.1191501 -0.9195777 0.0629247 0.5908456
6.6400 1.1048981 9.8695491 -0.1176531 -0.9179132 0.0655611 0.6121307
6.6600 1.1349712 9.8772863 -0.1157541 -0.9160125 0.0681536 0.6334339
6.6800 1.1657114 9.8852488 -0.1142222 -0.9138793 0.0707042 0.6547351
6.7000 1.1959628 9.8935141 -0.1123557 -0.9115174 0.0732149 0.6760142
6.7200 1.2264824 9.9019996 -0.1107131 -0.9089315 0.0756875 0.6972511
6.7400 1.2562535 9.9107697 -0.1087140 -0.9061268 0.0781238 0.7184260
6.7600 1.2864538 9.9197070 -0.1070746 -0.9031087 0.0805254 0.7395189
6.7800 1.3157243 9.9289027 -0.1050489 -0.8998833 0.0828938 0.7605101
6.8000 1.3449450 9.9382618 -0.1032731 -0.8964574 0.0852306 0.7813800
6.8200 1.3731805 9.9478406 -0.1012158 -0.8928378 0.0875370 0.8021093
6.8400 1.4013818 9.9575395 -0.0994084 -0.8890321 0.0898141 0.8226787
6.8600 1.4285154 9.9674201 -0.0974406 -0.8850482 0.0920632 0.8430692
6.8800 1.4546343 9.9774580 -0.0952650 -0.8808943 0.0942852 0.8632622
6.9000 1.4804278 9.9875733 -0.0933610 -0.8765792 0.0964808 0.8832391
6.9200 1.5051131 9.9978079 -0.0914284 -0.8721118 0.0986509 0.9029817
6.9400 1.5285232 10.0081561 -0.0892600 -0.8675016 0.1007961 0.9224721
6.9600 1.5509744 10.0185690 -0.0871683 -0.8627583 0.1029168 0.9416927
6.9800 1.5722697 10.0290412 -0.0851310 -0.8578919 0.1050135 0.9606262
7.0000 1.5926229 10.0395362 -0.0831400 -0.8529126 0.1070863 0.9792556
7.0200 1.6111741 10.0501034 -0.0809496 -0.8478310 0.1091355 0.9975644
7.0400 1.6285385 10.0606724 -0.0788737 -0.8426579 0.1111610 1.0155365
7.0600 1.6444988 10.0712431 -0.0767298 -0.8374043 0.1131628 1.0331559
7.0800 1.6592371 10.0817806 -0.0747609 -0.8320814 0.1151406 1.0504074
7.1000 1.6721340 10.0923195 -0.0726266 -0.8267004 0.1170942 1.0672759
7.1200 1.6834006 10.1028251 -0.0704618 -0.8212729 0.1190231 1.0837469
7.1400 1.6931913 10.1132675 -0.0684148 -0.8158106 0.1209268 1.0998064
7.1600 1.7017375 10.1236127 -0.0665045 -0.8103250 0.1228046 1.1154407
7.1800 1.7076112 10.1339662 -0.0641469 -0.8048281 0.1246559 1.1306366
7.2000 1.7129774 10.1441304 -0.0624151 -0.7993316 0.1264798 1.1453815
7.2200 1.7158915 10.1542586 -0.0602965 -0.7938474 0.1282754 1.1596633
7.2400 1.7170921 10.1642754 -0.0582320 -0.7883874 0.1300416 1.1734701
7.2600 1.7167918 10.1741518 -0.0563159 -0.7829635 0.1317775 1.1867909
7.2800 1.7148164 10.1838932 -0.0543913 -0.7775875 0.1334817 1.1996151
7.3000 1.7109045 10.1935122 -0.0524888 -0.7722711 0.1351531 1.2119324
7.3200 1.7053256 10.2029790 -0.0505256 -0.7670261 0.1367903 1.2237334
7.3400 1.6982235 10.2122727 -0.0487590 -0.7618641 0.1383920 1.2350089
7.3600 1.6892223 10.2214209 -0.0468855 -0.7567964 0.1399566 1.2457506
7.3800 1.6787136 10.2303841 -0.0451540 -0.7518345 0.1414828 1.2559505
7.4000 1.6667252 10.2391561 -0.0434652 -0.7469895 0.1429689 1.2656012
7.4200 1.6526441 10.2477877 -0.0416041 -0.7422724 0.1444132 1.2746959
7.4400 1.6376749 10.2561707 -0.0400412 -0.7376938 0.1458143 1.2832285
7.4600 1.6208228 10.2643914 -0.0383880 -0.7332645 0.1471704 1.2911931
7.4800 1.6026975 10.2723962 -0.0368185 -0.7289946 0.1484798 1.2985849
7.5000 1.5833190 10.2801834 -0.0353499 -0.7248942 0.1497407 1.3053993
7.5200 1.5622929 10.2877904 -0.0337045 -0.7209731 0.1509515 1.3116324
7.5400 1.5403919 10.2951494 -0.0323930 -0.7172408 0.1521103 1.3172808
7.5600 1.5171199 10.3023092 -0.0308652 -0.7137062 0.1532154 1.3223419
7.5800 1.4931556 10.3092110 -0.0297210 -0.7103784 0.1542651 1.3268135
7.6000 1.4676557 10.3159372 -0.0282183 -0.7072657 0.1552575 1.3306941
7.6200 1.4415281 10.3224097 -0.0269847 -0.7043763 0.1561910 1.3339828
7.6400 1.4144265 10.3286663 -0.0257090 -0.7017178 0.1570639 1.3366790
7.6600 1.3869555 10.3346578 -0.0246629 -0.6992977 0.1578744 1.3387832
7.6800 1.3585514 10.3404433 -0.0234834 -0.6971227 0.1586208 1.3402960
7.7000 1.3294224 10.3460112 -0.0222616 -0.6951995 0.1593016 1.3412189
7.7200 1.3003661 10.3512952 -0.0213456 -0.6935341 0.1599153 1.3415539
7.7400 1.2706000 10.3563766 -0.0203361 -0.6921322 0.1604601 1.3413035
7.7600 1.2403929 10.3612394 -0.0191898 -0.6909988 0.1609347 1.3404708
7.7800 1.2104712 10.3658240 -0.0183855 -0.6901388 0.1613377 1.3390596
7.8000 1.1801537 10.3702043 -0.0173705 -0.6895563 0.1616677 1.3370741
7.8200 1.1501792 10.3743195 -0.0165740 -0.6892552 0.1619235 1.3345192
7.8400 1.1199797 10.3782336 -0.0156542 -0.6892386 0.1621037 1.3314003
7.8600 1.0904263 10.3818732 -0.0148872 -0.6895094 0.1622074 1.3277232
7.8800 1.0608724 10.3853101 -0.0140398 -0.6900698 0.1622335 1.3234946
7.9000 1.0317440 10.3885134 -0.0132421 -0.6909217 0.1621810 1.3187214
7.9200 1.0033238 10.3914656 -0.0124358 -0.6920661 0.1620491 1.3134112
7.9400 0.9756942 10.3941686 -0.0118909 -0.6935038 0.1618370 1.3075721
7.9600 0.9480553 10.3967098 -0.0108550 -0.6952352 0.1615441 1.3012127
7.9800 0.9220320 10.3989406 -0.0103702 -0.6972597 0.1611699 1.2943421
8.0000 0.8963848 10.4009913 -0.0095527 -0.6995766 0.1607139 1.2869698
8.0200 0.8718490 10.4027993 -0.0088769 -0.7021845 0.1601758 1.2791060
8.0400 0.8480734 10.4044080 -0.0080301 -0.7050815 0.1595555 1.2707612
8.0600 0.8258424 10.4057486 -0.0074497 -0.7082651 0.1588527 1.2619464
8.0800 0.8046066 10.4068836 -0.0067457 -0.7117325 0.1580677 1.2526732
8.1000 0.7841346 10.4078446 -0.0058293 -0.7154802 0.1572005 1.2429533
8.1200 0.7658848 10.4084930 -0.0053111 -0.7195041 0.1562515 1.2327992
8.1400 0.7478086 10.4090420 -0.0043077 -0.7237998 0.1552211 1.2222236
8.1600 0.7321803 10.4092692 -0.0036937 -0.7283623 0.1541097 1.2112397
8.1800 0.7173546 10.4093472 -0.0028153 -0.7331861 0.1529182 1.1998609
8.2000 0.7043544 10.4091785 -0.0021064 -0.7382652 0.1516473 1.1881012
8.2200 0.6922361 10.4088639 -0.0009799 -0.7435931 0.1502979 1.1759749
8.2400 0.6824825 10.4082584 -0.0003371 -0.7491630 0.1488712 1.1634965
8.2600 0.6736498 10.4075128 0.0007189 -0.7549672 0.1473683 1.1506809
8.2800 0.6666231 10.4065413 0.0016646 -0.7609981 0.1457906 1.1375434
8.3000 0.6610539 10.4053828 0.0027164 -0.7672473 0.1441395 1.1240995
8.3200 0.6571287 10.4040216 0.0037125 -0.7737061 0.1424167 1.1103649
8.3400 0.6550838 10.4024347 0.0047306 -0.7803653 0.1406238 1.0963557
8.3600 0.6536592 10.4007557 0.0061445 -0.7872154 0.1387628 1.0820882
8.3800 0.6550898 10.3987537 0.0070264 -0.7942464 0.1368356 1.0675788
8.4000 0.6567850 10.3966988 0.0085835 -0.8014480 0.1348443 1.0528442
8.4200 0.6610704 10.3943501 0.0096055 -0.8088097 0.1327911 1.0379013
8.4400 0.6658317 10.3919274 0.0112053 -0.8163203 0.1306783 1.0227671
8.4600 0.6730180 10.3892263 0.0124558 -0.8239686 0.1285085 1.0074587
8.4800 0.6806051 10.3864592 0.0141483 -0.8317429 0.1262842 0.9919934
8.5000 0.6904251 10.3834314 0.0155344 -0.8396314 0.1240081 0.9763885
8.5200 0.7012210 10.3802738 0.0171065 -0.8476220 0.1216829 0.9606614
8.5400 0.7128355 10.3770006 0.0189888 -0.8557022 0.1193115 0.9448297
8.5600 0.7263959 10.3734910 0.0205047 -0.8638594 0.1168970 0.9289108
8.5800 0.7403740 10.3699022 0.0225291 -0.8720808 0.1144424 0.9129222
8.6000 0.7560686 10.3660953 0.0242166 -0.8803535 0.1119508 0.8968814
8.6200 0.7723161 10.3621893 0.0261847 -0.8886644 0.1094256 0.8808060
8.6400 0.7894892 10.3581406 0.0282445 -0.8970002 0.1068700 0.8647132
8.6600 0.8076009 10.3539441 0.0303221 -0.9053475 0.1042874 0.8486203
8.6800 0.8265738 10.3496042 0.0323750 -0.9136929 0.1016814 0.8325447
8.7000 0.8460554 10.3451534 0.0345966 -0.9220230 0.0990555 0.8165033
8.7200 0.8660092 10.3405910 0.0369516 -0.9303243 0.0964133 0.8005132
8.7400 0.8867972 10.3358742 0.0391655 -0.9385831 0.0937585 0.7845910
8.7600 0.9076347 10.3310814 0.0416519 -0.9467861 0.0910947 0.7687533
8.7800 0.9290654 10.3261501 0.0440259 -0.9549198 0.0884258 0.7530165
8.8000 0.9507321 10.3211124 0.0465206 -0.9629709 0.0857554 0.7373967
8.8200 0.9721445 10.3160181 0.0491636 -0.9709260 0.0830876 0.7219098
8.8400 0.9941399 10.3107702 0.0516596 -0.9787720 0.0804261 0.7065713
8.8600 1.0157063 10.3054728 0.0544274 -0.9864960 0.0777747 0.6913965
8.8800 1.0371740 10.3000870 0.0571648 -0.9940850 0.0751375 0.6764003
8.9000 1.0585666 10.2946040 0.0599065 -1.0015266 0.0725183 0.6615973
8.9200 1.0794574 10.2890662 0.0627568 -1.0088082 0.0699210 0.6470019
8.9400 1.1002347 10.2834261 0.0655560 -1.0159178 0.0673496 0.6326277
8.9600 1.1202485 10.2777515 0.0684471 -1.0228435 0.0648079 0.6184884
8.9800 1.1395581 10.2720294 0.0715239 -1.0295737 0.0623000 0.6045970
9.0000 1.1586722 10.2662033 0.0743655 -1.0360971 0.0598296 0.5909660
9.0200 1.1766057 10.2603755 0.0774440 -1.0424028 0.0574006 0.5776076
9.0400 1.1937633 10.2544986 0.0805563 -1.0484804 0.0550169 0.5645335
9.0600 1.2102988 10.2485531 0.0835832 -1.0543196 0.0526822 0.5517549
9.0800 1.2257962 10.2425834 0.0865863 -1.0599107 0.0504005 0.5392824
9.1000 1.2398971 10.2366230 0.0898703 -1.0652445 0.0481753 0.5271263
9.1200 1.2533118 10.2305957 0.0929430 -1.0703119 0.0460104 0.5152962
9.1400 1.2654989 10.2245582 0.0960531 -1.0751048 0.0439093 0.5038012
9.1600 1.2762359 10.2185319 0.0993762 -1.0796150 0.0418758 0.4926498
9.1800 1.2862297 10.2124449 0.1022997 -1.0838353 0.0399132 0.4818500
9.2000 1.2940279 10.2064471 0.1058341 -1.0877588 0.0380251 0.4714093
9.2200 1.3016611 10.2003266 0.1086586 -1.0913791 0.0362148 0.4613345
9.2400 1.3066468 10.1943471 0.1121911 -1.0946904 0.0344856 0.4516318
9.2600 1.3113067 10.1882628 0.1151463 -1.0976875 0.0328408 0.4423068
9.2800 1.3138837 10.1822634 0.1184454 -1.1003658 0.0312835 0.4333645
9.3000 1.3153337 10.1762492 0.1215639 -1.1027211 0.0298167 0.4248095
9.3200 1.3150581 10.1702894 0.1247205 -1.1047500 0.0284435 0.4166454
9.3400 1.3131072 10.1643777 0.1280633 -1.1064496 0.0271666 0.4088756
9.3600 1.3104200 10.1584206 0.1309819 -1.1078176 0.0259889 0.4015024
9.3800 1.3056323 10.1525692 0.1341477 -1.1088524 0.0249131 0.3945280
9.4000 1.2993362 10.1467628 0.1373568 -1.1095530 0.0239418 0.3879536
9.4200 1.2919281 10.1409664 0.1403355 -1.1099188 0.0230774 0.3817799
9.4400 1.2828242 10.1352478 0.1434083 -1.1099503 0.0223222 0.3760071
9.4600 1.2722263 10.1295914 0.1464996 -1.1096481 0.0216786 0.3706345
9.4800 1.2603547 10.1239804 0.1495210 -1.1090137 0.0211487 0.3656612
9.5000 1.2473470 10.1184111 0.1522796 -1.1080493 0.0207345 0.3610854
9.5200 1.2323241 10.1129791 0.1554589 -1.1067574 0.0204379 0.3569047
9.5400 1.2168120 10.1075329 0.1581879 -1.1051415 0.0202608 0.3531162
9.5600 1.1992540 10.1022486 0.1612258 -1.1032054 0.0202047 0.3497166
9.5800 1.1812235 10.0969658 0.1638611 -1.1009536 0.0202713 0.3467016
9.6000 1.1614178 10.0918301 0.1668639 -1.0983912 0.0204620 0.3440669
9.6200 1.1411355 10.0867186 0.1694061 -1.0955238 0.0207780 0.3418071
9.6400 1.1190866 10.0817725 0.1723721 -1.0923578 0.0212206 0.3399166
9.6600 1.0970101 10.0768223 0.1747424 -1.0888998 0.0217907 0.3383893
9.6800 1.0732001 10.0720542 0.1775923 -1.0851572 0.0224894 0.3372184
9.7000 1.0488113 10.0673603 0.1802429 -1.0811377 0.0233174 0.3363969
9.7200 1.0240429 10.0627310 0.1826011 -1.0768498 0.0242754 0.3359170
9.7400 0.9983940 10.0582252 0.1851338 -1.0723023 0.0253639 0.3357707
9.7600 0.9718142 10.0538640 0.1877452 -1.0675043 0.0265833 0.3359495
9.7800 0.9451301 10.0495695 0.1901140 -1.0624655 0.0279340 0.3364446
9.8000 0.9179882 10.0453896 0.1924759 -1.0571962 0.0294159 0.3372464
9.8200 0.8903707 10.0413377 0.1948782 -1.0517069 0.0310293 0.3383456
9.8400 0.8629151 10.0373579 0.1970318 -1.0460083 0.0327739 0.3397319
9.8600 0.8346434 10.0335651 0.1994579 -1.0401118 0.0346496 0.3413951
9.8800 0.8067714 10.0298393 0.2016660 -1.0340289 0.0366559 0.3433246
9.9000 0.7787011 10.0262588 0.2038763 -1.0277715 0.0387924 0.3455094
9.9200 0.7510748 10.0227618 0.2059489 -1.0213516 0.0410585 0.3479384
9.9400 0.7232894 10.0194255 0.2081445 -1.0147816 0.0434535 0.3506002
9.9600 0.6959762 10.0161941 0.2101748 -1.0080740 0.0459764 0.3534832
9.9800 0.6691706 10.0130690 0.2122086 -1.0012416 0.0486263 0.3565757
10.0000 0.6422501 10.0101329 0.2143919 -0.9942972 0.0514021 0.3598657
10.0200 0.6168568 10.0072149 0.2161538 -0.9872539 0.0543026 0.3633413
10.0400 0.5910191 10.0045370 0.2183731 -0.9801247 0.0573265 0.3669902
10.0600 0.5669282 10.0018737 0.2200926 -0.9729227 0.0604723 0.3708002
10.0800 0.5428009 9.9994261 0.2221063 -0.9656611 0.0637384 0.3747591
10.1000 0.5198915 9.9970610 0.2240675 -0.9583530 0.0671233 0.3788547
10.1200 0.4981930 9.9947935 0.2258329 -0.9510116 0.0706250 0.3830745
10.1400 0.4772638 9.9926778 0.2276392 -0.9436500 0.0742419 0.3874064
10.1600 0.4570374 9.9907219 0.2296905 -0.9362809 0.0779718 0.3918382
10.1800 0.4388239 9.9887959 0.2313240 -0.9289173 0.0818127 0.3963577
10.2000 0.4212757 9.9870497 0.2331602 -0.9215718 0.0857625 0.4009528
10.2200 0.4050106 9.9854187 0.2350379 -0.9142568 0.0898188 0.4056118
10.2400 0.3904306 9.9838683 0.2366990 -0.9069847 0.0939794 0.4103229
10.2600 0.3767672 9.9824787 0.2386527 -0.8997673 0.0982418 0.4150745
10.2800 0.3649474 9.9811630 0.2402806 -0.8926163 0.1026035 0.4198551
10.3000 0.3545306 9.9799581 0.2421143 -0.8855433 0.1070619 0.4246537
10.3200 0.3453752 9.9788940 0.2439164 -0.8785592 0.1116143 0.4294594
10.3400 0.3379774 9.9779078 0.2457480 -0.8716748 0.1162580 0.4342614
10.3600 0.3322987 9.9770141 0.2474046 -0.8649004 0.1209902 0.4390494
10.3800 0.3282021 9.9762164 0.2492276 -0.8582459 0.1258080 0.4438133
10.4000 0.3256089 9.9755332 0.2510072 -0.8517208 0.1307085 0.4485434
10.4200 0.3243878 9.9749711 0.2529578 -0.8453342 0.1356887 0.4532301
10.4400 0.3255099 9.9744269 0.2545904 -0.8390946 0.1407456 0.4578645
10.4600 0.3278068 9.9740185 0.2565396 -0.8330101 0.1458761 0.4624377
10.4800 0.3320416 9.9736680 0.2583105 -0.8270884 0.1510771 0.4669415
10.5000 0.3378327 9.9734086 0.2601661 -0.8213364 0.1563455 0.4713679
10.5200 0.3451768 9.9732360 0.2621146 -0.8157607 0.1616780 0.4757093
10.5400 0.3543002 9.9731208 0.2640625 -0.8103673 0.1670714 0.4799586
10.5600 0.3653145 9.9730526 0.2657965 -0.8051616 0.1725225 0.4841091
10.5800 0.3775320 9.9730865 0.2679065 -0.8001484 0.1780281 0.4881546
10.6000 0.3916585 9.9731532 0.2697824 -0.7953320 0.1835848 0.4920892
10.6200 0.4071221 9.9732988 0.2718572 -0.7907161 0.1891894 0.4959074
10.6400 0.4243052 9.9734807 0.2738251 -0.7863038 0.1948386 0.4996044
10.6600 0.4432284 9.9736833 0.2757822 -0.7820976 0.2005290 0.5031757
10.6800 0.4630656 9.9739907 0.2780112 -0.7780994 0.2062575 0.5066172
10.7000 0.4847642 9.9742969 0.2799778 -0.7743106 0.2120207 0.5099254
10.7200 0.5076084 9.9746586 0.2822279 -0.7707318 0.2178153 0.5130972
10.7400 0.5320966 9.9750252 0.2842617 -0.7673632 0.2236381 0.5161299
10.7600 0.5576774 9.9754396 0.2864540 -0.7642045 0.2294859 0.5190214
10.7800 0.5843121 9.9758983 0.2887551 -0.7612546 0.2353554 0.5217698
10.8000 0.6123976 9.9763486 0.2909659 -0.7585120 0.2412434 0.5243740
10.8200 0.6415207 9.9768255 0.2932361 -0.7559747 0.2471468 0.5268330
10.8400 0.6718584 9.9773000 0.2954494 -0.7536398 0.2530624 0.5291464
10.8600 0.7028139 9.9778242 0.2978887 -0.7515045 0.2589872 0.5313144
10.8800 0.7351446 9.9783100 0.3001011 -0.7495649 0.2649181 0.5333372
10.9000 0.7677119 9.9788617 0.3027337 -0.7478170 0.2708522 0.5352159
10.9200 0.8019735 9.9793237 0.3048489 -0.7462562 0.2767864 0.5369515
10.9400 0.8360438 9.9798772 0.3075090 -0.7448774 0.2827178 0.5385458
10.9600 0.8716185 9.9803370 0.3097421 -0.7436753 0.2886436 0.5400007
10.9800 0.9067469 9.9808971 0.3125283 -0.7426440 0.2945610 0.5413187
11.0000 0.9435376 9.9813276 0.3147111 -0.7417772 0.3004673 0.5425024
11.0200 0.9800691 9.9818132 0.3173814 -0.7410686 0.3063597 0.5435549
11.0400 1.0168420 9.9823051 0.3199793 -0.7405111 0.3122357 0.5444797
11.0600 1.0545079 9.9827087 0.3224453 -0.7400978 0.3180926 0.5452802
11.0800 1.0919830 9.9831426 0.3250301 -0.7398212 0.3239281 0.5459605
11.1000 1.1295216 9.9835632 0.3277116 -0.7396737 0.3297396 0.5465249
11.1200 1.1676664 9.9839043 0.3301687 -0.7396475 0.3355248 0.5469777
11.1400 1.2054165 9.9842650 0.3328340 -0.7397348 0.3412815 0.5473236
11.1600 1.2429535 9.9846192 0.3355490 -0.7399275 0.3470073 0.5475676
11.1800 1.2810445 9.9848731 0.3379689 -0.7402174 0.3527001 0.5477147
11.2000 1.3181432 9.9851832 0.3408320 -0.7405965 0.3583579 0.5477702
11.2200 1.3555507 9.9854085 0.3433615 -0.7410564 0.3639787 0.5477395
11.2400 1.3926842 9.9856002 0.3458792 -0.7415891 0.3695604 0.5476280
11.2600 1.4289872 9.9858070 0.3486973 -0.7421865 0.3751013 0.5474416
11.2800 1.4651456 9.9859584 0.3512779 -0.7428405 0.3805994 0.5471858
11.3000 1.5010259 9.9860533 0.3538205 -0.7435433 0.3860532 0.5468665
11.3200 1.5362041 9.9861351 0.3564374 -0.7442872 0.3914608 0.5464896
11.3400 1.5704267 9.9862293 0.3591576 -0.7450648 0.3968208 0.5460608
11.3600 1.6047390 9.9862104 0.3615949 -0.7458687 0.4021315 0.5455861
11.3800 1.6378876 9.9862153 0.3642080 -0.7466920 0.4073916 0.5450714
11.4000 1.6703110 9.9861883 0.3668422 -0.7475281 0.4125996 0.5445224
11.4200 1.7023353 9.9860947 0.3692380 -0.7483706 0.4177541 0.5439451
11.4400 1.7332287 9.9860045 0.3718298 -0.7492137 0.4228539 0.5433450
11.4600 1.7632999 9.9858876 0.3743353 -0.7500516 0.4278978 0.5427279
11.4800 1.7928268 9.9857059 0.3767017 -0.7508795 0.4328846 0.5420993
11.5000 1.8211246 9.9855362 0.3791532 -0.7516925 0.4378132 0.5414646
11.5200 1.8486598 9.9853190 0.3815787 -0.7524867 0.4426825 0.5408291
11.5400 1.8749870 9.9851087 0.3840438 -0.7532584 0.4474915 0.5401980
11.5600 1.9008960 9.9848136 0.3862473 -0.7540046 0.4522394 0.5395761
11.5800 1.9255843 9.9845258 0.3884639 -0.7547227 0.4569250 0.5389683
11.6000 1.9488952 9.9842540 0.3908944 -0.7554108 0.4615477 0.5383791
11.6200 1.9715692 9.9839218 0.3931094 -0.7560677 0.4661065 0.5378131
11.6400 1.9934135 9.9835534 0.3951453 -0.7566928 0.4706008 0.5372742
11.6600 2.0138652 9.9832050 0.3973615 -0.7572860 0.4750296 0.5367666
11.6800 2.0332764 9.9828437 0.3995120 -0.7578480 0.4793924 0.5362938
11.7000 2.0518811 9.9824434 0.4015157 -0.7583801 0.4836884 0.5358594
11.7200 2.0694589 9.9820278 0.4035051 -0.7588843 0.4879170 0.5354666
11.7400 2.0860259 9.9815999 0.4054227 -0.7593633 0.4920776 0.5351183
11.7600 2.1009490 9.9812333 0.4075328 -0.7598206 0.4961695 0.5348172
11.7800 2.1158942 9.9807377 0.4092199 -0.7602603 0.5001921 0.5345658
11.8000 2.1289805 9.9803359 0.4111388 -0.7606871 0.5041450 0.5343662
11.8200 2.1416846 9.9798558 0.4128073 -0.7611065 0.5080276 0.5342202
11.8400 2.1525743 9.9794656 0.4147711 -0.7615248 0.5118393 0.5341295
11.8600 2.1634424 9.9789680 0.4162534 -0.7619488 0.5155796 0.5340953
11.8800 2.1727386 9.9785335 0.4180304 -0.7623861 0.5192480 0.5341187
11.9000 2.1814068 9.9780706 0.4195281 -0.7628449 0.5228440 0.5342005
11.9200 2.1886659 9.9776621 0.4212183 -0.7633342 0.5263671 0.5343412
11.9400 2.1957797 9.9771673 0.4226009 -0.7638633 0.5298169 0.5345409
11.9600 2.2012674 9.9767666 0.4241582 -0.7644425 0.5331928 0.5347996
11.9800 2.2062071 9.9763287 0.4256482 -0.7650825 0.5364943 0.5351170
12.0000 2.2103235 9.9759029 0.4269722 -0.7657946 0.5397211 0.5354926
12.0200 2.2137097 9.9754701 0.4282844 -0.7665906 0.5428725 0.5359255
12.0400 2.2159091 9.9750888 0.4297399 -0.7674830 0.5459481 0.5364147
12.0600 2.2175486 9.9746968 0.4310066 -0.7684844 0.5489475 0.5369588
12.0800 2.2188352 9.9742679 0.4321027 -0.7696084 0.5518701 0.5375565
12.1000 2.2185668 9.9739430 0.4335246 -0.7708685 0.5547154 0.5382059
12.1200 2.2181645 9.9735652 0.4346754 -0.7722788 0.5574829 0.5389051
12.1400 2.2167933 9.9732360 0.4358628 -0.7738539 0.5601722 0.5396521
12.1600 2.2151121 9.9728769 0.4369260 -0.7756084 0.5627827 0.5404446
12.1800 2.2122875 9.9725907 0.4381501 -0.7775573 0.5653138 0.5412801
12.2000 2.2091590 9.9722795 0.4392742 -0.7797159 0.5677651 0.5421560
12.2200 2.2054697 9.9719849 0.4402767 -0.7820994 0.5701360 0.5430696
12.2400 2.2007168 9.9717548 0.4415537 -0.7847234 0.5724261 0.5440181
12.2600 2.1961937 9.9714576 0.4423839 -0.7876034 0.5746347 0.5449984
12.2800 2.1904368 9.9712453 0.4436364 -0.7907549 0.5767613 0.5460076
12.3000 2.1845089 9.9710175 0.4446114 -0.7941935 0.5788055 0.5470424
12.3200 2.1777224 9.9708441 0.4457584 -0.7979345 0.5807666 0.5480997
12.3400 2.1710468 9.9706138 0.4467149 -0.8019933 0.5826442 0.5491763
12.3600 2.1632626 9.9704763 0.4478759 -0.8063850 0.5844377 0.5502688
12.3800 2.1552044 9.9703311 0.4489981 -0.8111242 0.5861466 0.5513740
12.4000 2.1470610 9.9701615 0.4499592 -0.8162256 0.5877704 0.5524886
12.4200 2.1380326 9.9700591 0.4511164 -0.8217033 0.5893087 0.5536093
12.4400 2.1289589 9.9699245 0.4521853 -0.8275709 0.5907609 0.5547328
12.4600 2.1189743 9.9698649 0.4534358 -0.8338418 0.5921265 0.5558560
12.4800 2.1089400 9.9697777 0.4545774 -0.8405285 0.5934053 0.5569756
12.5000 2.0984446 9.9697119 0.4557713 -0.8476432 0.5945967 0.5580887
12.5200 2.0878569 9.9696270 0.4568466 -0.8551973 0.5957003 0.5591922
12.5400 2.0762396 9.9696245 0.4582872 -0.8632015 0.5967159 0.5602833
12.5600 2.0647474 9.9695777 0.4595371 -0.8716658 0.5976431 0.5613591
12.5800 2.0529919 9.9695317 0.4607540 -0.8805994 0.5984817 0.5624170
12.6000 2.0403860 9.9695492 0.4622503 -0.8900105 0.5992314 0.5634545
12.6200 2.0278991 9.9695251 0.4635341 -0.8999066 0.5998921 0.5644693
12.6400 2.0147987 9.9695310 0.4650801 -0.9102940 0.6004636 0.5654591
12.6600 2.0014005 9.9695454 0.4665528 -0.9211781 0.6009459 0.5664220
12.6800 1.9877895 9.9695449 0.4680955 -0.9325632 0.6013390 0.5673559
12.7000 1.9736760 9.9695722 0.4696962 -0.9444526 0.6016430 0.5682594
12.7200 1.9593511 9.9695846 0.4713475 -0.9568483 0.6018579 0.5691309
12.7400 1.9443641 9.9696369 0.4731934 -0.9697512 0.6019841 0.5699691
12.7600 1.9297004 9.9696194 0.4747629 -0.9831610 0.6020218 0.5707730
12.7800 1.9142110 9.9696525 0.4766810 -0.9970760 0.6019714 0.5715417
12.8000 1.8982648 9.9697025 0.4786726 -1.0114934 0.6018333 0.5722746
12.8200 1.8824570 9.9696963 0.4805381 -1.0264090 0.6016082 0.5729712
12.8400 1.8661957 9.9697042 0.4824879 -1.0418171 0.6012967 0.5736315
12.8600 1.8490841 9.9697652 0.4847677 -1.0577108 0.6008996 0.5742553
12.8800 1.8323413 9.9697400 0.4868410 -1.0740817 0.6004178 0.5748430
12.9000 1.8149047 9.9697583 0.4890562 -1.0909201 0.5998522 0.5753950
12.9200 1.7974491 9.9697291 0.4912922 -1.1082147 0.5992040 0.5759120
12.9400 1.7791342 9.9697563 0.4938066 -1.1259530 0.5984744 0.5763950
12.9600 1.7609567 9.9697250 0.4961792 -1.1441207 0.5976647 0.5768450
12.9800 1.7423474 9.9696949 0.4987210 -1.1627024 0.5967765 0.5772633
13.0000 1.7232603 9.9696796 0.5013484 -1.1816810 0.5958113 0.5776516
13.0200 1.7043499 9.9695948 0.5038962 -1.2010380 0.5947710 0.5780115
13.0400 1.6847746 9.9695439 0.5066453 -1.2207535 0.5936573 0.5783449
13.0600 1.6647320 9.9695031 0.5095321 -1.2408061 0.5924724 0.5786540
13.0800 1.6450796 9.9693721 0.5122202 -1.2611731 0.5912183 0.5789411
13.1000 1.6241733 9.9693353 0.5154717 -1.2818301 0.5898975 0.5792085
13.1200 1.6040023 9.9691793 0.5182766 -1.3027516 0.5885123 0.5794589
13.1400 1.5829765 9.9690809 0.5213937 -1.3239106 0.5870654 0.5796949
13.1600 1.5619666 9.9689274 0.5246203 -1.3452787 0.5855596 0.5799195
13.1800 1.5406502 9.9687846 0.5277782 -1.3668265 0.5839977 0.5801356
13.2000 1.5191387 9.9686158 0.5311212 -1.3885228 0.5823828 0.5803463
13.2200 1.4973729 9.9684431 0.5345212 -1.4103357 0.5807183 0.5805548
13.2400 1.4757880 9.9682160 0.5378297 -1.4322317 0.5790073 0.5807642
13.2600 1.4533604 9.9680515 0.5415156 -1.4541763 0.5772535 0.5809779
13.2800 1.4317269 9.9677652 0.5448807 -1.4761341 0.5754606 0.5811991
13.3000 1.4090540 9.9675694 0.5487143 -1.4980683 0.5736323 0.5814314
13.3200 1.3869647 9.9672874 0.5522612 -1.5199413 0.5717727 0.5816779
13.3400 1.3646602 9.9670033 0.5559843 -1.5417146 0.5698858 0.5819421
13.3600 1.3421632 9.9667202 0.5598515 -1.5633487 0.5679761 0.5822272
13.3800 1.3196313 9.9664296 0.5637369 -1.5848035 0.5660478 0.5825367
13.4000 1.2971337 9.9661163 0.5677352 -1.6060379 0.5641056 0.5828736
13.4200 1.2751947 9.9657398 0.5714636 -1.6270102 0.5621541 0.5832412
13.4400 1.2525146 9.9654300 0.5757225 -1.6476784 0.5601982 0.5836426
13.4600 1.2306236 9.9650371 0.5796472 -1.6679995 0.5582428 0.5840805
13.4800 1.2085415 9.9646668 0.5837724 -1.6879304 0.5562932 0.5845580
13.5000 1.1865315 9.9642878 0.5880532 -1.7074275 0.5543544 0.5850776
13.5200 1.1648865 9.9638887 0.5921898 -1.7264470 0.5524318 0.5856418
13.5400 1.1435271 9.9634645 0.5964194 -1.7449449 0.5505308 0.5862530
13.5600 1.1224012 9.9630320 0.6007058 -1.7628769 0.5486571 0.5869133
13.5800 1.1015388 9.9625914 0.6050571 -1.7801989 0.5468163 0.5876247
13.6000 1.0809026 9.9621585 0.6094282 -1.7968667 0.5450141 0.5883887
13.6200 1.0607473 9.9616976 0.6138357 -1.8128365 0.5432564 0.5892070
13.6400 1.0412789 9.9611953 0.6181493 -1.8280643 0.5415491 0.5900806
13.6600 1.0218430 9.9607366 0.6225964 -1.8425069 0.5398982 0.5910105
13.6800 1.0027487 9.9602704 0.6272583 -1.8561211 0.5383098 0.5919973
13.7000 0.9847090 9.9597426 0.6316253 -1.8688646 0.5367900 0.5930414
13.7200 0.9669412 9.9592445 0.6360590 -1.8806954 0.5353449 0.5941428
13.7400 0.9495276 9.9587502 0.6407349 -1.8915723 0.5339809 0.5953013
13.7600 0.9330060 9.9582205 0.6452691 -1.9014549 0.5327042 0.5965162
13.7800 0.9171689 9.9576879 0.6497119 -1.9103037 0.5315210 0.5977867
13.8000 0.9017048 9.9571714 0.6543967 -1.9180799 0.5304377 0.5991113
13.8200 0.8871360 9.9566305 0.6589721 -1.9247462 0.5294606 0.6004885
13.8400 0.8730878 9.9561139 0.6635789 -1.9302660 0.5285960 0.6019164
13.8600 0.8602227 9.9555333 0.6681060 -1.9346041 0.5278502 0.6033924
13.8800 0.8476460 9.9550144 0.6727365 -1.9377267 0.5272295 0.6049140
13.9000 0.8360865 9.9544535 0.6773970 -1.9396012 0.5267401 0.6064780
13.9200 0.8254063 9.9538965 0.6819008 -1.9401965 0.5263882 0.6080809
13.9400 0.8155251 9.9533348 0.6864700 -1.9394831 0.5261801 0.6097189
13.9600 0.8062211 9.9527952 0.6912045 -1.9374330 0.5261218 0.6113879
13.9800 0.7984368 9.9521942 0.6955316 -1.9340202 0.5262193 0.6130831
14.0000 0.7906591 9.9516742 0.7003490 -1.9292200 0.5264785 0.6147997
14.0200 0.7846410 9.9510653 0.7046974 -1.9230098 0.5269054 0.6165324
14.0400 0.7788044 9.9505292 0.7093851 -1.9153688 0.5275056 0.6182754
14.0600 0.7745170 9.9499264 0.7137245 -1.9062782 0.5282849 0.6200227
14.0800 0.7708483 9.9493448 0.7182508 -1.8957212 0.5292486 0.6217681
14.1000 0.7677276 9.9488079 0.7228578 -1.8836830 0.5304021 0.6235046
14.1200 0.7662205 9.9481868 0.7271768 -1.8701508 0.5317506 0.6252253
14.1400 0.7652452 9.9476149 0.7315459 -1.8551143 0.5332993 0.6269229
14.1600 0.7652890 9.9470134 0.7359547 -1.8385650 0.5350528 0.6285896
14.1800 0.7661073 9.9464295 0.7403195 -1.8204969 0.5370160 0.6302176
14.2000 0.7678891 9.9458326 0.7446207 -1.8009061 0.5391933 0.6317984
14.2200 0.7704578 9.9452368 0.7489519 -1.7797910 0.5415890 0.6333237
14.2400 0.7744008 9.9445832 0.7529840 -1.7571524 0.5442071 0.6347846
14.2600 0.7783015 9.9440182 0.7573711 -1.7329935 0.5470514 0.6361722
14.2800 0.7837950 9.9433591 0.7613948 -1.7073196 0.5501256 0.6374773
14.3000 0.7896060 9.9427530 0.7655075 -1.6801385 0.5534330 0.6386905
14.3200 0.7964353 9.9420961 0.7695782 -1.6514605 0.5569765 0.6398021
14.3400 0.8039837 9.9414396 0.7735384 -1.6212982 0.5607590 0.6408024
14.3600 0.8120648 9.9407986 0.7774604 -1.5896663 0.5647831 0.6416816
14.3800 0.8211340 9.9400960 0.7813081 -1.5565822 0.5690508 0.6424297
14.4000 0.8304950 9.9394315 0.7851364 -1.5220655 0.5735641 0.6430365
14.4200 0.8406088 9.9387279 0.7888948 -1.4861382 0.5783245 0.6434921
14.4400 0.8510343 9.9380342 0.7927023 -1.4488246 0.5833334 0.6437861
14.4600 0.8625727 9.9372672 0.7961101 -1.4101511 0.5885915 0.6439083
14.4800 0.8738179 9.9365568 0.7998392 -1.3701467 0.5940996 0.6438487
14.5000 0.8861547 9.9357591 0.8031606 -1.3288422 0.5998577 0.6435969
14.5200 0.8983850 9.9349879 0.8066469 -1.2862710 0.6058659 0.6431429
14.5400 0.9108932 9.9341998 0.8100651 -1.2424683 0.6121234 0.6424768
14.5600 0.9242340 9.9333372 0.8130714 -1.1974716 0.6186295 0.6415885
14.5800 0.9368774 9.9325348 0.8164936 -1.1513203 0.6253830 0.6404683
14.6000 0.9505294 9.9316214 0.8193938 -1.1040558 0.6323820 0.6391065
14.6200 0.9636512 9.9307405 0.8225400 -1.0557214 0.6396247 0.6374939
14.6400 0.9771572 9.9298081 0.8253283 -1.0063623 0.6471085 0.6356211
14.6600 0.9906773 9.9288355 0.8280529 -0.9560255 0.6548306 0.6334792
14.6800 1.0034445 9.9278923 0.8310635 -0.9047596 0.6627878 0.6310596
14.7000 1.0169384 9.9268392 0.8334634 -0.8526149 0.6709764 0.6283537
14.7200 1.0298498 9.9257847 0.8359887 -0.7996432 0.6793924 0.6253536
14.7400 1.0420870 9.9247449 0.8385460 -0.7458979 0.6880313 0.6220516
14.7600 1.0547193 9.9235812 0.8407429 -0.6914335 0.6968882 0.6184402
14.7800 1.0662552 9.9224640 0.8430854 -0.6363061 0.7059579 0.6145125
14.8000 1.0779184 9.9212486 0.8450348 -0.5805727 0.7152346 0.6102620
14.8200 1.0885384 9.9200356 0.8472150 -0.5242918 0.7247123 0.6056827
14.8400 1.0989871 9.9187575 0.8489554 -0.4675225 0.7343845 0.6007688
14.8600 1.1088036 9.9174177 0.8507195 -0.4103249 0.7442442 0.5955153
14.8800 1.1172322 9.9161280 0.8525405 -0.3527602 0.7542844 0.5899174
14.9000 1.1259846 9.9146611 0.8538811 -0.2948899 0.7644972 0.5839713
14.9200 1.1329590 9.9132631 0.8554668 -0.2367764 0.7748746 0.5776731
14.9400 1.1397685 9.9117463 0.8565927 -0.1784824 0.7854083 0.5710201
14.9600 1.1450389 9.9102378 0.8579612 -0.1200711 0.7960895 0.5640098
14.9800 1.1501139 9.9086113 0.8587551 -0.0616060 0.8069091 0.5566404
15.0000 1.1532133 9.9070252 0.8599581 -0.0031506 0.8178576 0.5489108
15.0200 1.1562923 9.9052928 0.8604403 0.0552313 0.8289252 0.5408203
15.0400 1.1574011 9.9035795 0.8613536 0.1134762 0.8401019 0.5323690
15.0600 1.1578524 9.9017882 0.8617139 0.1715205 0.8513773 0.5235577
15.0800 1.1569207 9.8999381 0.8622302 0.2293010 0.8627406 0.5143877
15.1000 1.1549140 9.8980415 0.8623753 0.2867549 0.8741810 0.5048611
15.1200 1.1516878 9.8960735 0.8624631 0.3438198 0.8856872 0.4949807
15.1400 1.1470391 9.8940609 0.8625075 0.4004338 0.8972477 0.4847498
15.1600 1.1410894 9.8919995 0.8623461 0.4565360 0.9088510 0.4741724
15.1800 1.1341083 9.8898447 0.8619323 0.5120659 0.9204851 0.4632534
15.2000 1.1252494 9.8876910 0.8616037 0.5669643 0.9321379 0.4519982
15.2200 1.1155487 9.8854092 0.8609790 0.6211725 0.9437972 0.4404128
15.2400 1.1041459 9.8831136 0.8602800 0.6746334 0.9554507 0.4285041
15.2600 1.0916774 9.8807153 0.8593388 0.7272907 0.9670859 0.4162796
15.2800 1.0777280 9.8782706 0.8582535 0.7790897 0.9786900 0.4037472
15.3000 1.0619077 9.8758053 0.8573199 0.8299768 0.9902505 0.3909158
15.3200 1.0455893 9.8731869 0.8557714 0.8799001 1.0017546 0.3777949
15.3400 1.0271966 9.8705750 0.8544324 0.9288090 1.0131895 0.3643943
15.3600 1.0077378 9.8678594 0.8528435 0.9766547 1.0245423 0.3507248
15.3800 0.9867669 9.8651035 0.8511155 1.0233901 1.0358003 0.3367977
15.4000 0.9647388 9.8622423 0.8491658 1.0689699 1.0469507 0.3226247
15.4200 0.9410229 9.8593565 0.8472252 1.1133506 1.0579806 0.3082182
15.4400 0.9164527 9.8563448 0.8450056 1.1564907 1.0688775 0.2935913
15.4600 0.8901909 9.8533196 0.8427786 1.1983504 1.0796288 0.2787574
15.4800 0.8630826 9.8501769 0.8402691 1.2388925 1.0902219 0.2637304
15.5000 0.8342807 9.8470262 0.8377951 1.2780814 1.1006446 0.2485248
15.5200 0.8050698 9.8437030 0.8349754 1.3158839 1.1108847 0.2331554
15.5400 0.7739826 9.8404108 0.8322367 1.3522690 1.1209301 0.2176377
15.5600 0.7422581 9.8369875 0.8292469 1.3872079 1.1307692 0.2019873
15.5800 0.7093084 9.8335164 0.8262063 1.4206741 1.1403902 0.1862202
15.6000 0.6757262 9.8299338 0.8228876 1.4526435 1.1497820 0.1703530
15.6200 0.6407338 9.8263379 0.8196413 1.4830942 1.1589334 0.1544023
15.6400 0.6053454 9.8226051 0.8161487 1.5120068 1.1678335 0.1383851
15.6600 0.5687425 9.8188560 0.8126507 1.5393643 1.1764720 0.1223185
15.6800 0.5315638 9.8150145 0.8089699 1.5651521 1.1848386 0.1062201
15.7000 0.4940058 9.8110629 0.8050711 1.5893580 1.1929235 0.0901074
15.7200 0.4551036 9.8071221 0.8014049 1.6119722 1.2007172 0.0739982
15.7400 0.4164253 9.8030233 0.7972752 1.6329874 1.2082104 0.0579101
15.7600 0.3768336 9.7989028 0.7932531 1.6523987 1.2153946 0.0418612
15.7800 0.3371059 9.7946792 0.7890319 1.6702038 1.2222611 0.0258692
15.8000 0.2964611 9.7904560 0.7849673 1.6864024 1.2288022 0.0099521
15.8200 0.2561309 9.7860954 0.7805819 1.7009971 1.2350102 -0.0058724
15.8400 0.2156927 9.7816647 0.7760345 1.7139925 1.2408781 -0.0215865
15.8600 0.1744083 9.7772474 0.7717958 1.7253957 1.2463989 -0.0371726
15.8800 0.1338558 9.7726759 0.7671500 1.7352161 1.2515667 -0.0526133
15.9000 0.0928679 9.7680977 0.7626532 1.7434653 1.2563754 -0.0678914
15.9200 0.0520294 9.7634620 0.7580287 1.7501573 1.2608198 -0.0829900
15.9400 0.0118196 9.7587034 0.7532663 1.7553082 1.2648949 -0.0978922
15.9600 -0.0288457 9.7539864 0.7486740 1.7589363 1.2685964 -0.1125818
15.9800 -0.0686450 9.7491447 0.7438878 1.7610619 1.2719203 -0.1270426
16.0000 -0.1082427 9.7442805 0.7391371 1.7617076 1.2748631 -0.1412591
16.0200 -0.1473907 9.7393694 0.7344072 1.7608976 1.2774217 -0.1552159
16.0400 -0.1858923 9.7344102 0.7295604 1.7586584 1.2795937 -0.1688984
16.0600 -0.2236938 9.7293912 0.7247532 1.7550181 1.2813771 -0.1822921
16.0800 -0.2612218 9.7243860 0.7201183 1.7500069 1.2827701 -0.1953832
16.1000 -0.2972695 9.7192693 0.7151039 1.7436563 1.2837717 -0.2081586
16.1200 -0.3331880 9.7141975 0.7104771 1.7359998 1.2843813 -0.2206054
16.1400 -0.3677597 9.7090401 0.7057126 1.7270725 1.2845986 -0.2327117
16.1600 -0.4016485 9.7039077 0.7009657 1.7169106 1.2844240 -0.2444658
16.1800 -0.4343184 9.6987145 0.6963218 1.7055521 1.2838582 -0.2558569
16.2000 -0.4660816 9.6935436 0.6916495 1.6930363 1.2829024 -0.2668749
16.2200 -0.4966288 9.6883400 0.6870986 1.6794035 1.2815582 -0.2775102
16.2400 -0.5258102 9.6831132 0.6824896 1.6646954 1.2798276 -0.2877541
16.2600 -0.5539788 9.6779117 0.6780455 1.6489546 1.2777131 -0.2975984
16.2800 -0.5809697 9.6727324 0.6736670 1.6322249 1.2752176 -0.3070358
16.3000 -0.6063152 9.6675166 0.6692897 1.6145508 1.2723445 -0.3160598
16.3200 -0.6304299 9.6623309 0.6650597 1.5959776 1.2690974 -0.3246644
16.3400 -0.6531249 9.6571699 0.6608482 1.5765515 1.2654804 -0.3328446
16.3600 -0.6743799 9.6520285 0.6567769 1.5563190 1.2614979 -0.3405961
16.3800 -0.6939686 9.6468937 0.6527200 1.5353275 1.2571548 -0.3479155
16.4000 -0.7124935 9.6418456 0.6489681 1.5136245 1.2524563 -0.3547999
16.4200 -0.7287666 9.6367506 0.6450111 1.4912580 1.2474078 -0.3612475
16.4400 -0.7441701 9.6317859 0.6414388 1.4682762 1.2420152 -0.3672571
16.4600 -0.7574790 9.6268037 0.6378036 1.4447275 1.2362847 -0.3728284
16.4800 -0.7695406 9.6219240 0.6343844 1.4206603 1.2302226 -0.3779618
16.5000 -0.7798718 9.6170811 0.6311117 1.3961230 1.2238357 -0.3826585
16.5200 -0.7883525 9.6122797 0.6278206 1.3711638 1.2171311 -0.3869206
16.5400 -0.7953190 9.6075603 0.6247170 1.3458307 1.2101159 -0.3907507
16.5600 -0.8007968 9.6029285 0.6218405 1.3201717 1.2027977 -0.3941525
16.5800 -0.8043960 9.5983530 0.6189206 1.2942339 1.1951842 -0.3971301
16.6000 -0.8066873 9.5938925 0.6163421 1.2680643 1.1872833 -0.3996886
16.6200 -0.8068826 9.5894632 0.6136911 1.2417092 1.1791033 -0.4018336
16.6400 -0.8059796 9.5851888 0.6113943 1.2152144 1.1706525 -0.4035716
16.6600 -0.8029787 9.5809471 0.6090570 1.1886249 1.1619393 -0.4049095
16.6800 -0.7987097 9.5768496 0.6069413 1.1619849 1.1529726 -0.4058553
16.7000 -0.7927280 9.5728359 0.6049289 1.1353377 1.1437610 -0.4064171
16.7200 -0.7850703 9.5689110 0.6030316 1.1087259 1.1343135 -0.4066041
16.7400 -0.7761187 9.5651261 0.6013575 1.0821908 1.1246393 -0.4064257
16.7600 -0.7656932 9.5614567 0.5998457 1.0557728 1.1147475 -0.4058920
16.7800 -0.7535801 9.5578755 0.5984005 1.0295113 1.1046473 -0.4050138
16.8000 -0.7398348 9.5544003 0.5969113 1.0034442 1.0943482 -0.4038022
16.8200 -0.7253796 9.5511180 0.5959815 0.9776084 1.0838596 -0.4022689
16.8400 -0.7088778 9.5478818 0.5948586 0.9520396 1.0731908 -0.4004259
16.8600 -0.6913453 9.5448121 0.5939547 0.9267719 1.0623515 -0.3982858
16.8800 -0.6725445 9.5418701 0.5932198 0.9018381 1.0513511 -0.3958614
16.9000 -0.6523148 9.5390363 0.5925296 0.8772697 1.0401992 -0.3931661
16.9200 -0.6310423 9.5363488 0.5920731 0.8530966 1.0289054 -0.3902133
16.9400 -0.6085446 9.5337887 0.5916750 0.8293473 1.0174792 -0.3870170
16.9600 -0.5848673 9.5313587 0.5913108 0.8060486 1.0059300 -0.3835913
16.9800 -0.5603272 9.5290739 0.5912701 0.7832260 0.9942674 -0.3799506
17.0000 -0.5346413 9.5269207 0.5911465 0.7609031 0.9825009 -0.3761093
17.0200 -0.5079301 9.5248814 0.5912275 0.7391022 0.9706397 -0.3720821
17.0400 -0.4802486 9.5229762 0.5913120 0.7178438 0.9586932 -0.3678839
17.0600 -0.4522065 9.5212628 0.5917209 0.6971467 0.9466707 -0.3635296
17.0800 -0.4228130 9.5196211 0.5919467 0.6770283 0.9345813 -0.3590340
17.1000 -0.3926196 9.5180964 0.5923371 0.6575041 0.9224340 -0.3544122
17.1200 -0.3623317 9.5167817 0.5929997 0.6385879 0.9102378 -0.3496792
17.1400 -0.3307021 9.5155137 0.5934399 0.6202922 0.8980015 -0.3448497
17.1600 -0.2991264 9.5144446 0.5942941 0.6026275 0.8857339 -0.3399386
17.1800 -0.2662895 9.5134278 0.5947819 0.5856028 0.8734434 -0.3349606
17.2000 -0.2336744 9.5126028 0.5958064 0.5692253 0.8611386 -0.3299303
17.2200 -0.2002376 9.5118689 0.5965644 0.5535008 0.8488276 -0.3248619
17.2400 -0.1664914 9.5112576 0.5974606 0.5384334 0.8365187 -0.3197698
17.2600 -0.1324534 9.5107619 0.5984811 0.5240256 0.8242198 -0.3146678
17.2800 -0.0981753 9.5103929 0.5994782 0.5102782 0.8119386 -0.3095696
17.3000 -0.0632420 9.5100822 0.6003530 0.4971907 0.7996829 -0.3044885
17.3200 -0.0288576 9.5099657 0.6015744 0.4847610 0.7874600 -0.2994376
17.3400 0.0059703 9.5099160 0.6026996 0.4729855 0.7752771 -0.2944296
17.3600 0.0412023 9.5099334 0.6036747 0.4618591 0.7631413 -0.2894767
17.3800 0.0760677 9.5100953 0.6048540 0.4513753 0.7510595 -0.2845911
17.4000 0.1111556 9.5103194 0.6060026 0.4415263 0.7390383 -0.2797840
17.4200 0.1460143 9.5106643 0.6071419 0.4323030 0.7270841 -0.2750666
17.4400 0.1806751 9.5111063 0.6083549 0.4236949 0.7152032 -0.2704496
17.4600 0.2157447 9.5115609 0.6094060 0.4156903 0.7034015 -0.2659430
17.4800 0.2501687 9.5121562 0.6105950 0.4082764 0.6916849 -0.2615565
17.5000 0.2845625 9.5128091 0.6116624 0.4014391 0.6800589 -0.2572991
17.5200 0.3187179 9.5135259 0.6127822 0.3951633 0.6685288 -0.2531796
17.5400 0.3524449 9.5143310 0.6139115 0.3894329 0.6570999 -0.2492059
17.5600 0.3859187 9.5151893 0.6150269 0.3842307 0.6457769 -0.2453855
17.5800 0.4193281 9.5160767 0.6159695 0.3795386 0.6345646 -0.2417254
17.6000 0.4520727 9.5170520 0.6170256 0.3753377 0.6234674 -0.2382319
17.6200 0.4845719 9.5180586 0.6180006 0.3716083 0.6124896 -0.2349109
17.6400 0.5165757 9.5191216 0.6189590 0.3683298 0.6016350 -0.2317675
17.6600 0.5481094 9.5202297 0.6198909 0.3654811 0.5909075 -0.2288063
17.6800 0.5795668 9.5213292 0.6206281 0.3630401 0.5803106 -0.2260313
17.7000 0.6099389 9.5225305 0.6216046 0.3609847 0.5698477 -0.2234459
17.7200 0.6404302 9.5236881 0.6222776 0.3592917 0.5595217 -0.2210530
17.7400 0.6697997 9.5249468 0.6231133 0.3579378 0.5493357 -0.2188548
17.7600 0.6993183 9.5261407 0.6236810 0.3568992 0.5392922 -0.2168528
17.7800 0.7276998 9.5274231 0.6244381 0.3561518 0.5293937 -0.2150481
17.8000 0.7559991 9.5286649 0.6249334 0.3556711 0.5196424 -0.2134411
17.8200 0.7835907 9.5299310 0.6254665 0.3554325 0.5100404 -0.2120317
17.8400 0.8105035 9.5312120 0.6260368 0.3554113 0.5005894 -0.2108192
17.8600 0.8368504 9.5325059 0.6264260 0.3555826 0.4912911 -0.2098022
17.8800 0.8627633 9.5337625 0.6269053 0.3559215 0.4821470 -0.2089790
17.9000 0.8883125 9.5350052 0.6270649 0.3564032 0.4731582 -0.2083471
17.9200 0.9129920 9.5362596 0.6274412 0.3570027 0.4643258 -0.2079036
17.9400 0.9369202 9.5375332 0.6277201 0.3576955 0.4556506 -0.2076451
17.9600 0.9605872 9.5387430 0.6279393 0.3584570 0.4471335 -0.2075675
17.9800 0.9839228 9.5399117 0.6279468 0.3592631 0.4387749 -0.2076665
18.0000 1.0061379 9.5411227 0.6281448 0.3600899 0.4305751 -0.2079370
18.0200 1.0282735 9.5422498 0.6281235 0.3609136 0.4225345 -0.2083738
18.0400 1.0492662 9.5434216 0.6282677 0.3617112 0.4146530 -0.2089709
18.0600 1.0705981 9.5444535 0.6280598 0.3624598 0.4069306 -0.2097222
18.0800 1.0903681 9.5455816 0.6281406 0.3631373 0.3993670 -0.2106209
18.1000 1.1102791 9.5465890 0.6279774 0.3637219 0.3919620 -0.2116599
18.1200 1.1296935 9.5475513 0.6278221 0.3641924 0.3847150 -0.2128319
18.1400 1.1483591 9.5485168 0.6275750 0.3645284 0.3776254 -0.2141291
18.1600 1.1661581 9.5494756 0.6275404 0.3647099 0.3706926 -0.2155433
18.1800 1.1844709 9.5502701 0.6271040 0.3647178 0.3639158 -0.2170663
18.2000 1.2010687 9.5511737 0.6270630 0.3645335 0.3572939 -0.2186892
18.2200 1.2181702 9.5519153 0.6266271 0.3641395 0.3508262 -0.2204031
18.2400 1.2343935 9.5526596 0.6263459 0.3635188 0.3445114 -0.2221989
18.2600 1.2501095 9.5533673 0.6260360 0.3626553 0.3383484 -0.2240671
18.2800 1.2653570 9.5540282 0.6257545 0.3615337 0.3323361 -0.2259982
18.3000 1.2805240 9.5545965 0.6253626 0.3601397 0.3264731 -0.2279823
18.3200 1.2949847 9.5551623 0.6249535 0.3584598 0.3207581 -0.2300097
18.3400 1.3089887 9.5556758 0.6246690 0.3564813 0.3151897 -0.2320702
18.3600 1.3226929 9.5561342 0.6242942 0.3541927 0.3097665 -0.2341537
18.3800 1.3359418 9.5565537 0.6239385 0.3515832 0.3044870 -0.2362500
18.4000 1.3489058 9.5569137 0.6235645 0.3486430 0.2993497 -0.2383489
18.4200 1.3616102 9.5572151 0.6231449 0.3453633 0.2943531 -0.2404399
18.4400 1.3734233 9.5575337 0.6229461 0.3417363 0.2894956 -0.2425129
18.4600 1.3855992 9.5577219 0.6224903 0.3377551 0.2847757 -0.2445575
18.4800 1.3970949 9.5579079 0.6221679 0.3334137 0.2801918 -0.2465634
18.5000 1.4081378 9.5580648 0.6219196 0.3287073 0.2757423 -0.2485205
18.5200 1.4189079 9.5581759 0.6216536 0.3236319 0.2714257 -0.2504185
18.5400 1.4296353 9.5582108 0.6213492 0.3181846 0.2672404 -0.2522474
18.5600 1.4398989 9.5582326 0.6210567 0.3123633 0.2631848 -0.2539973
18.5800 1.4497140 9.5582271 0.6209430 0.3061670 0.2592575 -0.2556584
18.6000 1.4594914 9.5581613 0.6207078 0.2995955 0.2554568 -0.2572209
18.6200 1.4689900 9.5580621 0.6205000 0.2926498 0.2517814 -0.2586754
18.6400 1.4778703 9.5579693 0.6204921 0.2853317 0.2482297 -0.2600126
18.6600 1.4871074 9.5577740 0.6202702 0.2776436 0.2448002 -0.2612232
18.6800 1.4954701 9.5576254 0.6203088 0.2695893 0.2414917 -0.2622986
18.7000 1.5038212 9.5574234 0.6202909 0.2611732 0.2383026 -0.2632298
18.7200 1.5121461 9.5571660 0.6203030 0.2524006 0.2352318 -0.2640086
18.7400 1.5201931 9.5569027 0.6202593 0.2432775 0.2322778 -0.2646267
18.7600 1.5276323 9.5566584 0.6204843 0.2338109 0.2294396 -0.2650762
18.7800 1.5352478 9.5563501 0.6206094 0.2240086 0.2267158 -0.2653495
18.8000 1.5426118 9.5560353 0.6207604 0.2138789 0.2241053 -0.2654392
18.8200 1.5497484 9.5557127 0.6209524 0.2034310 0.2216071 -0.2653383
18.8400 1.5564829 9.5554003 0.6213210 0.1926748 0.2192200 -0.2650401
18.8600 1.5633607 9.5550437 0.6215893 0.1816210 0.2169432 -0.2645380
18.8800 1.5698270 9.5547132 0.6219569 0.1702805 0.2147756 -0.2638261
18.9000 1.5760652 9.5543850 0.6224197 0.1586652 0.2127165 -0.2628985
18.9200 1.5827017 9.5539916 0.6227107 0.1467875 0.2107649 -0.2617498
18.9400 1.5883176 9.5536981 0.6234375 0.1346602 0.2089202 -0.2603749
18.9600 1.5946885 9.5533162 0.6237327 0.1222967 0.2071815 -0.2587691
18.9800 1.6000766 9.5530319 0.6245124 0.1097108 0.2055484 -0.2569279
19.0000 1.6058286 9.5527067 0.6250820 0.0969168 0.2040201 -0.2548473
19.0200 1.6115910 9.5523766 0.6256862 0.0839293 0.2025962 -0.2525236
19.0400 1.6167284 9.5521261 0.6264988 0.0707633 0.2012761 -0.2499534
19.0600 1.6222740 9.5518319 0.6271960 0.0574341 0.2000595 -0.2471338
19.0800 1.6271842 9.5516313 0.6280520 0.0439573 0.1989460 -0.2440621
19.1000 1.6325284 9.5513845 0.6288719 0.0303487 0.1979352 -0.2407359
19.1200 1.6376626 9.5511878 0.6297102 0.0166242 0.1970271 -0.2371534
19.1400 1.6425853 9.5510378 0.6306555 0.0028002 0.1962212 -0.2333129
19.1600 1.6475136 9.5509154 0.6316017 -0.0111071 0.1955176 -0.2292131
19.1800 1.6522412 9.5508474 0.6326456 -0.0250814 0.1949161 -0.2248532
19.2000 1.6576280 9.5507321 0.6335232 -0.0391063 0.1944166 -0.2202326
19.2200 1.6621534 9.5507629 0.6346806 -0.0531652 0.1940193 -0.2153509
19.2400 1.6669283 9.5508059 0.6357938 -0.0672418 0.1937240 -0.2102082
19.2600 1.6721265 9.5508464 0.6367833 -0.0813198 0.1935310 -0.2048050
19.2800 1.6767406 9.5510014 0.6380847 -0.0953829 0.1934404 -0.1991418
19.3000 1.6819439 9.5511543 0.6390777 -0.1094150 0.1934523 -0.1932198
19.3200 1.6868296 9.5513884 0.6404049 -0.1234002 0.1935671 -0.1870401
19.3400 1.6920856 9.5516584 0.6414673 -0.1373227 0.1937848 -0.1806044
19.3600 1.6970078 9.5520210 0.6428604 -0.1511672 0.1941059 -0.1739145
19.3800 1.7025540 9.5523914 0.6439764 -0.1649182 0.1945307 -0.1669725
19.4000 1.7079376 9.5528500 0.6452847 -0.1785610 0.1950596 -0.1597810
19.4200 1.7133436 9.5533907 0.6465921 -0.1920810 0.1956928 -0.1523424
19.4400 1.7190110 9.5539791 0.6479304 -0.2054638 0.1964310 -0.1446597
19.4600 1.7251277 9.5546069 0.6491295 -0.2186958 0.1972744 -0.1367362
19.4800 1.7312940 9.5553160 0.6504372 -0.2317633 0.1982235 -0.1285750
19.5000 1.7372915 9.5561402 0.6518860 -0.2446535 0.1992788 -0.1201799
19.5200 1.7439587 9.5569888 0.6531378 -0.2573538 0.2004409 -0.1115547
19.5400 1.7508995 9.5579022 0.6544501 -0.2698522 0.2017102 -0.1027033
19.5600 1.7576725 9.5589465 0.6558627 -0.2821372 0.2030872 -0.0936300
19.5800 1.7655463 9.5599664 0.6570440 -0.2941977 0.2045725 -0.0843391
19.6000 1.7726603 9.5611905 0.6585799 -0.3060232 0.2061665 -0.0748353
19.6200 1.7808681 9.5624027 0.6598425 -0.3176040 0.2078699 -0.0651232
19.6400 1.7893467 9.5637019 0.6611397 -0.3289306 0.2096830 -0.0552078
19.6600 1.7978977 9.5651161 0.6625257 -0.3399944 0.2116065 -0.0450942
19.6800 1.8069383 9.5665981 0.6638730 -0.3507873 0.2136408 -0.0347874
19.7000 1.8166565 9.5681313 0.6650918 -0.3613017 0.2157865 -0.0242929
19.7200 1.8264948 9.5697744 0.6664861 -0.3715308 0.2180440 -0.0136160
19.7400 1.8365811 9.5715297 0.6678525 -0.3814684 0.2204137 -0.0027624
19.7600 1.8477975 9.5732857 0.6690036 -0.3911088 0.2228961 0.0082624
19.7800 1.8589020 9.5751894 0.6703839 -0.4004473 0.2254917 0.0194524
19.8000 1.8705038 9.5771811 0.6716787 -0.4094795 0.2282007 0.0308019
19.8200 1.8828099 9.5792268 0.6729468 -0.4182017 0.2310236 0.0423049
19.8400 1.8958421 9.5813320 0.6741157 -0.4266111 0.2339607 0.0539554
19.8600 1.9087412 9.5836023 0.6754457 -0.4347054 0.2370122 0.0657473
19.8800 1.9228068 9.5858712 0.6766578 -0.4424828 0.2401784 0.0776743
19.9000 1.9369457 9.5882883 0.6779092 -0.4499424 0.2434595 0.0897302
19.9200 1.9520067 9.5907417 0.6790519 -0.4570839 0.2468556 0.1019088
19.9400 1.9676000 9.5932795 0.6802021 -0.4639075 0.2503668 0.1142036
19.9600 1.9830996 9.5959721 0.6816087 -0.4704142 0.2539932 0.1266084
19.9800 2.0003299 9.5986192 0.6825010 -0.4766056 0.2577347 0.1391166
20.0000 2.0170502 9.6014686 0.6838054 -0.4824837 0.2615914 0.1517218
20.0200 2.0349384 9.6043241 0.6849338 -0.4880515 0.2655629 0.1644175
20.0400 2.0531165 9.6072963 0.6860967 -0.4933121 0.2696492 0.1771971
20.0600 2.0722288 9.6103037 0.6871236 -0.4982697 0.2738499 0.1900541
20.0800 2.0916554 9.6134198 0.6882006 -0.5029286 0.2781648 0.2029820
20.1000 2.1114244 9.6166271 0.6894511 -0.5072939 0.2825933 0.2159740
20.1200 2.1322965 9.6198549 0.6903934 -0.5113711 0.2871351 0.2290237
20.1400 2.1532820 9.6232057 0.6914833 -0.5151665 0.2917895 0.2421243
20.1600 2.1748142 9.6266164 0.6926712 -0.5186864 0.2965558 0.2552693
20.1800 2.1972349 9.6300698 0.6935638 -0.5219379 0.3014335 0.2684520
20.2000 2.2200169 9.6335967 0.6946315 -0.5249286 0.3064216 0.2816657
20.2200 2.2428536 9.6372461 0.6958001 -0.5276662 0.3115192 0.2949039
20.2400 2.2668574 9.6408801 0.6967211 -0.5301592 0.3167253 0.3081599
20.2600 2.2911366 9.6446004 0.6976824 -0.5324162 0.3220389 0.3214270
20.2800 2.3153306 9.6484403 0.6988497 -0.5344461 0.3274588 0.3346986
20.3000 2.3406441 9.6522520 0.6998205 -0.5362585 0.3329836 0.3479681
20.3200 2.3662375 9.6561459 0.7007011 -0.5378629 0.3386122 0.3612288
20.3400 2.3915429 9.6601574 0.7019505 -0.5392694 0.3443429 0.3744741
20.3600 2.4181233 9.6641219 0.7027681 -0.5404880 0.3501742 0.3876974
20.3800 2.4444046 9.6682048 0.7038308 -0.5415293 0.3561045 0.4008921
20.4000 2.4713717 9.6722834 0.7048002 -0.5424038 0.3621320 0.4140517
20.4200 2.4980032 9.6764810 0.7059193 -0.5431223 0.3682550 0.4271695
20.4400 2.5255320 9.6806372 0.7068467 -0.5436959 0.3744713 0.4402390
20.4600 2.5526909 9.6849034 0.7079156 -0.5441355 0.3807791 0.4532538
20.4800 2.5805328 9.6891429 0.7088127 -0.5444523 0.3871760 0.4662072
20.5000 2.6078459 9.6934838 0.7100219 -0.5446575 0.3936601 0.4790928
20.5200 2.6357723 9.6978036 0.7109392 -0.5447624 0.4002287 0.4919041
20.5400 2.6635851 9.7021632 0.7119805 -0.5447782 0.4068797 0.5046347
20.5600 2.6911773 9.7065827 0.7130186 -0.5447162 0.4136103 0.5172783
20.5800 2.7186530 9.7110199 0.7142278 -0.5445876 0.4204181 0.5298283
20.6000 2.7467168 9.7154146 0.7150409 -0.5444034 0.4273002 0.5422786
20.6200 2.7738182 9.7199122 0.7162821 -0.5441748 0.4342539 0.5546228
20.6400 2.8010953 9.7243956 0.7172878 -0.5439127 0.4412763 0.5668547
20.6600 2.8279965 9.7288988 0.7184681 -0.5436278 0.4483645 0.5789680
20.6800 2.8548991 9.7333871 0.7194954 -0.5433308 0.4555152 0.5909566
20.7000 2.8811563 9.7379222 0.7206492 -0.5430321 0.4627255 0.6028144
20.7200 2.9072078 9.7424458 0.7217412 -0.5427418 0.4699920 0.6145354
20.7400 2.9326215 9.7469945 0.7229723 -0.5424699 0.4773115 0.6261135
20.7600 2.9579936 9.7515032 0.7239824 -0.5422262 0.4846806 0.6375429
20.7800 2.9821206 9.7560899 0.7253449 -0.5420200 0.4920958 0.6488177
20.8000 3.0066090 9.7605691 0.7263485 -0.5418606 0.4995536 0.6599321
20.8200 3.0297921 9.7651293 0.7275801 -0.5417568 0.5070504 0.6708804
20.8400 3.0523372 9.7696730 0.7288921 -0.5417169 0.5145826 0.6816572
20.8600 3.0745957 9.7741655 0.7299996 -0.5417493 0.5221465 0.6922567
20.8800 3.0955605 9.7787066 0.7313646 -0.5418616 0.5297382 0.7026737
20.9000 3.1164297 9.7831606 0.7324082 -0.5420612 0.5373541 0.7129029
20.9200 3.1357962 9.7876710 0.7337797 -0.5423553 0.5449903 0.7229390
20.9400 3.1544632 9.7921429 0.7351009 -0.5427503 0.5526428 0.7327770
20.9600 3.1725888 9.7965584 0.7362243 -0.5432524 0.5603077 0.7424119
20.9800 3.1890142 9.8010339 0.7377003 -0.5438676 0.5679811 0.7518390
21.0000 3.2050761 9.8054216 0.7388572 -0.5446009 0.5756590 0.7610535
21.0200 3.2198249 9.8098085 0.7402182 -0.5454575 0.5833373 0.7700510
21.0400 3.2334291 9.8141802 0.7415979 -0.5464416 0.5910120 0.7788271
21.0600 3.2462541 9.8184942 0.7427835 -0.5475574 0.5986791 0.7873776
21.0800 3.2575317 9.8228214 0.7441930 -0.5488083 0.6063346 0.7956985
21.1000 3.2678670 9.8270916 0.7455229 -0.5501975 0.6139743 0.8037859
21.1200 3.2770046 9.8313340 0.7468234 -0.5517274 0.6215942 0.8116362
21.1400 3.2845559 9.8355878 0.7482527 -0.5534004 0.6291903 0.8192459
21.1600 3.2913792 9.8397370 0.7495688 -0.5552182 0.6367586 0.8266118
21.1800 3.2967620 9.8438834 0.7508341 -0.5571819 0.6442949 0.8337308
21.2000 3.3003795 9.8480406 0.7523671 -0.5592923 0.6517954 0.8406002
21.2200 3.3035928 9.8520618 0.7534644 -0.5615499 0.6592560 0.8472173
21.2400 3.3044279 9.8561599 0.7550572 -0.5639544 0.6666728 0.8535798
21.2600 3.3048476 9.8601175 0.7562064 -0.5665055 0.6740420 0.8596856
21.2800 3.3032555 9.8641079 0.7576592 -0.5692021 0.6813596 0.8655329
21.3000 3.3006798 9.8680146 0.7589375 -0.5720429 0.6886219 0.8711200
21.3200 3.2964718 9.8719145 0.7602800 -0.5750261 0.6958250 0.8764457
21.3400 3.2908701 9.8757665 0.7616963 -0.5781494 0.7029654 0.8815089
21.3600 3.2844701 9.8795090 0.7628532 -0.5814104 0.7100393 0.8863089
21.3800 3.2758089 9.8833235 0.7642575 -0.5848062 0.7170433 0.8908451
21.4000 3.2665809 9.8869852 0.7654436 -0.5883333 0.7239737 0.8951176
21.4200 3.2553374 9.8906812 0.7668584 -0.5919883 0.7308272 0.8991263
21.4400 3.2432559 9.8942738 0.7680108 -0.5957672 0.7376004 0.9028717
21.4600 3.2293690 9.8978739 0.7693383 -0.5996656 0.7442901 0.9063546
21.4800 3.2146993 9.9013536 0.7704962 -0.6036792 0.7508931 0.9095762
21.5000 3.1981973 9.9048528 0.7717901 -0.6078029 0.7574064 0.9125377
21.5200 3.1806688 9.9082736 0.7729289 -0.6120319 0.7638269 0.9152410
21.5400 3.1617730 9.9116480 0.7741525 -0.6163607 0.7701517 0.9176881
21.5600 3.1416622 9.9149690 0.7753248 -0.6207838 0.7763782 0.9198815
21.5800 3.1203517 9.9182342 0.7764727 -0.6252955 0.7825035 0.9218239
21.6000 3.0978193 9.9214560 0.7775513 -0.6298900 0.7885251 0.9235183
21.6200 3.0741402 9.9246132 0.7786735 -0.6345612 0.7944406 0.9249684
21.6400 3.0492338 9.9277303 0.7797789 -0.6393029 0.8002477 0.9261777
21.6600 3.0233719 9.9307740 0.7808013 -0.6441089 0.8059440 0.9271505
21.6800 2.9961008 9.9338040 0.7819269 -0.6489727 0.8115275 0.9278913
21.7000 2.9682957 9.9367106 0.7828770 -0.6538880 0.8169962 0.9284049
21.7200 2.9388772 9.9396402 0.7840028 -0.6588482 0.8223482 0.9286963
21.7400 2.9093190 9.9424126 0.7847651 -0.6638470 0.8275817 0.9287713
21.7600 2.8780049 9.9452191 0.7859185 -0.6688777 0.8326952 0.9286355
21.7800 2.8461322 9.9479338 0.7868572 -0.6739338 0.8376870 0.9282952
21.8000 2.8137094 9.9505508 0.7876730 -0.6790091 0.8425560 0.9277569
21.8200 2.7801656 9.9531421 0.7886360 -0.6840970 0.8473007 0.9270274
21.8400 2.7460736 9.9556521 0.7894453 -0.6891913 0.8519200 0.9261139
21.8600 2.7108533 9.9581441 0.7904632 -0.6942859 0.8564130 0.9250238
21.8800 2.6753084 9.9605407 0.7912392 -0.6993746 0.8607787 0.9237649
21.9000 2.6394831 9.9628150 0.7920007 -0.7044516 0.8650165 0.9223454
21.9200 2.6023194 9.9651303 0.7929547 -0.7095110 0.8691256 0.9207735
21.9400 2.5652775 9.9672924 0.7936926 -0.7145474 0.8731056 0.9190579
21.9600 2.5273342 9.9694454 0.7945385 -0.7195553 0.8769561 0.9172075
21.9800 2.4895138 9.9714553 0.7952020 -0.7245296 0.8806768 0.9152314
22.0000 2.4506239 9.9734814 0.7961300 -0.7294652 0.8842675 0.9131392
22.0200 2.4118460 9.9753850 0.7968395 -0.7343577 0.8877283 0.9109403
22.0400 2.3726237 9.9772343 0.7976257 -0.7392024 0.8910592 0.9086448
22.0600 2.3335492 9.9789615 0.7982595 -0.7439952 0.8942604 0.9062627
22.0800 2.2934191 9.9807206 0.7992571 -0.7487323 0.8973322 0.9038042
22.1000 2.2540534 9.9822988 0.7998206 -0.7534100 0.9002751 0.9012798
22.1200 2.2140661 9.9838574 0.8006719 -0.7580250 0.9030896 0.8987002
22.1400 2.1742392 9.9853191 0.8013797 -0.7625744 0.9057762 0.8960760
22.1600 2.1342077 9.9867221 0.8022148 -0.7670553 0.9083358 0.8934181
22.1800 2.0943567 9.9880322 0.8029599 -0.7714656 0.9107692 0.8907376
22.2000 2.0543011 9.9893000 0.8038095 -0.7758032 0.9130773 0.8880456
22.2200 2.0146616 9.9904435 0.8045999 -0.7800663 0.9152611 0.8853532
22.2400 1.9750134 9.9915360 0.8053918 -0.7842535 0.9173217 0.8826716
22.2600 1.9358167 9.9925008 0.8062062 -0.7883639 0.9192604 0.8800121
22.2800 1.8961958 9.9934859 0.8071409 -0.7923967 0.9210783 0.8773859
22.3000 1.8572163 9.9943305 0.8080292 -0.7963515 0.9227769 0.8748045
22.3200 1.8186995 9.9950711 0.8088778 -0.8002283 0.9243576 0.8722789
22.3400 1.7801977 9.9957741 0.8098346 -0.8040273 0.9258219 0.8698205
22.3600 1.7419274 9.9964142 0.8108426 -0.8077490 0.9271714 0.8674403
22.3800 1.7043502 9.9969267 0.8118066 -0.8113945 0.9284076 0.8651495
22.4000 1.6667703 9.9974225 0.8128695 -0.8149647 0.9295325 0.8629589
22.4200 1.6301199 9.9977569 0.8139054 -0.8184613 0.9305476 0.8608795
22.4400 1.5932717 9.9981143 0.8150809 -0.8218858 0.9314548 0.8589219
22.4600 1.5573135 9.9983337 0.8161757 -0.8252404 0.9322561 0.8570965
22.4800 1.5216390 9.9984981 0.8174239 -0.8285273 0.9329532 0.8554138
22.5000 1.4866361 9.9985691 0.8186152 -0.8317489 0.9335483 0.8538838
22.5200 1.4517012 9.9986264 0.8200096 -0.8349080 0.9340432 0.8525164
22.5400 1.4180540 9.9985130 0.8211510 -0.8380075 0.9344401 0.8513211
22.5600 1.3839032 9.9984586 0.8227949 -0.8410504 0.9347411 0.8503075
22.5800 1.3512362 9.9982213 0.8240646 -0.8440400 0.9349482 0.8494844
22.6000 1.3186468 9.9979777 0.8255884 -0.8469797 0.9350636 0.8488606
22.6200 1.2865775 9.9976710 0.8272148 -0.8498730 0.9350895 0.8484446
22.6400 1.2551820 9.9972925 0.8288216 -0.8527235 0.9350281 0.8482443
22.6600 1.2242819 9.9968679 0.8304850 -0.8555350 0.9348817 0.8482674
22.6800 1.1943303 9.9963225 0.8321741 -0.8583110 0.9346524 0.8485211
22.7000 1.1641988 9.9958386 0.8340832 -0.8610555 0.9343426 0.8490124
22.7200 1.1354490 9.9951847 0.8358353 -0.8637722 0.9339545 0.8497477
22.7400 1.1067548 9.9945560 0.8378053 -0.8664648 0.9334905 0.8507329
22.7600 1.0787822 9.9938581 0.8398096 -0.8691371 0.9329527 0.8519736
22.7800 1.0515320 9.9930936 0.8418475 -0.8717926 0.9323436 0.8534748
22.8000 1.0245540 9.9923409 0.8439690 -0.8744349 0.9316654 0.8552411
22.8200 0.9983109 9.9915137 0.8462091 -0.8770674 0.9309206 0.8572765
22.8400 0.9727857 9.9906389 0.8484055 -0.8796932 0.9301113 0.8595847
22.8600 0.9475259 9.9897779 0.8507436 -0.8823156 0.9292400 0.8621685
22.8800 0.9230220 9.9888531 0.8531472 -0.8849372 0.9283090 0.8650306
22.9000 0.8992298 9.9878820 0.8555672 -0.8875607 0.9273205 0.8681727
22.9200 0.8754974 9.9869725 0.8581148 -0.8901884 0.9262771 0.8715964
22.9400 0.8527327 9.9859689 0.8607223 -0.8928225 0.9251809 0.8753024
22.9600 0.8304527 9.9849700 0.8633383 -0.8954645 0.9240344 0.8792909
22.9800 0.8086835 9.9839659 0.8660214 -0.8981158 0.9228397 0.8835616
23.0000 0.7872347 9.9829775 0.8689005 -0.9007776 0.9215994 0.8881136
23.0200 0.7667047 9.9819371 0.8716752 -0.9034503 0.9203157 0.8929454
23.0400 0.7464632 9.9809385 0.8745404 -0.9061342 0.9189910 0.8980548
23.0600 0.7267577 9.9799309 0.8775544 -0.9088290 0.9176275 0.9034392
23.0800 0.7077548 9.9789126 0.8805242 -0.9115341 0.9162275 0.9090954
23.1000 0.6890855 9.9779321 0.8836228 -0.9142482 0.9147935 0.9150194
23.1200 0.6706767 9.9770085 0.8868366 -0.9169696 0.9133277 0.9212068
23.1400 0.6534553 9.9760022 0.8899430 -0.9196961 0.9118325 0.9276527
23.1600 0.6365047 9.9750619 0.8931348 -0.9224249 0.9103101 0.9343513
23.1800 0.6196613 9.9742131 0.8964796 -0.9251527 0.9087630 0.9412964
23.2000 0.6037719 9.9733177 0.8998512 -0.9278756 0.9071933 0.9484815
23.2200 0.5883829 9.9724727 0.9031942 -0.9305891 0.9056035 0.9558991
23.2400 0.5733008 9.9717020 0.9066290 -0.9332882 0.9039959 0.9635414
23.2600 0.5589481 9.9709317 0.9101425 -0.9359670 0.9023729 0.9714001
23.2800 0.5453407 9.9701899 0.9135436 -0.9386194 0.9007367 0.9794661
23.3000 0.5317957 9.9695680 0.9171350 -0.9412383 0.8990898 0.9877302
23.3200 0.5192591 9.9689161 0.9207374 -0.9438162 0.8974346 0.9961824
23.3400 0.5069657 9.9683885 0.9243216 -0.9463449 0.8957733 1.0048122
23.3600 0.4952492 9.9678975 0.9280915 -0.9488156 0.8941084 1.0136089
23.3800 0.4846606 9.9674094 0.9315774 -0.9512187 0.8924424 1.0225611
23.4000 0.4741811 9.9670457 0.9353274 -0.9535442 0.8907776 1.0316571
23.4200 0.4644584 9.9667269 0.9390661 -0.9557813 0.8891166 1.0408846
23.4400 0.4552539 9.9664960 0.9428462 -0.9579187 0.8874617 1.0502313
23.4600 0.4470075 9.9662912 0.9465453 -0.9599444 0.8858155 1.0596840
23.4800 0.4390879 9.9662063 0.9503912 -0.9618457 0.8841805 1.0692297
23.5000 0.4323041 9.9661414 0.9540302 -0.9636097 0.8825592 1.0788546
23.5200 0.4259025 9.9661769 0.9579485 -0.9652224 0.8809542 1.0885449
23.5400 0.4204134 9.9662903 0.9616277 -0.9666697 0.8793681 1.0982865
23.5600 0.4154942 9.9664834 0.9655480 -0.9679366 0.8778035 1.1080648
23.5800 0.4115278 9.9667499 0.9692768 -0.9690078 0.8762631 1.1178653
23.6000 0.4085274 9.9670562 0.9730586 -0.9698674 0.8747496 1.1276730
23.6200 0.4058692 9.9675249 0.9769210 -0.9704990 0.8732656 1.1374730
23.6400 0.4046067 9.9679819 0.9806806 -0.9708860 0.8718139 1.1472500
23.6600 0.4040915 9.9685468 0.9844174 -0.9710111 0.8703973 1.1569889
23.6800 0.4041411 9.9692364 0.9882897 -0.9708567 0.8690186 1.1666741
23.7000 0.4055806 9.9699461 0.9919401 -0.9704048 0.8676806 1.1762902
23.7200 0.4080128 9.9707088 0.9956971 -0.9696372 0.8663862 1.1858218
23.7400 0.4109838 9.9716358 0.9994434 -0.9685353 0.8651383 1.1952533
23.7600 0.4153693 9.9725668 1.0031173 -0.9670804 0.8639398 1.2045693
23.7800 0.4205373 9.9736102 1.0068522 -0.9652533 0.8627937 1.2137544
23.8000 0.4273088 9.9746446 1.0103914 -0.9630350 0.8617029 1.2227931
23.8200 0.4346421 9.9758360 1.0140269 -0.9604061 0.8606706 1.2316703
23.8400 0.4432053 9.9770591 1.0177221 -0.9573473 0.8596997 1.2403709
23.8600 0.4531316 9.9783382 1.0211559 -0.9538390 0.8587932 1.2488799
23.8800 0.4640937 9.9796784 1.0247353 -0.9498620 0.8579543 1.2571826
23.9000 0.4764525 9.9810540 1.0281624 -0.9453967 0.8571861 1.2652644
23.9200 0.4893746 9.9825863 1.0317461 -0.9404240 0.8564917 1.2731112
23.9400 0.5045746 9.9840007 1.0350269 -0.9349248 0.8558741 1.2807088
23.9600 0.5203277 9.9855823 1.0384134 -0.9288800 0.8553366 1.2880437
23.9800 0.5377220 9.9871462 1.0416743 -0.9222712 0.8548822 1.2951024
24.0000 0.5559059 9.9888195 1.0450977 -0.9150799 0.8545141 1.3018720
24.0200 0.5759143 9.9904565 1.0482586 -0.9072880 0.8542354 1.3083397
24.0400 0.5973394 9.9921056 1.0513628 -0.8988781 0.8540493 1.3144933
24.0600 0.6195750 9.9938602 1.0545906 -0.8898329 0.8539588 1.3203211
24.0800 0.6436169 9.9955637 1.0576200 -0.8801359 0.8539670 1.3258117
24.1000 0.6688718 9.9973078 1.0606178 -0.8697709 0.8540769 1.3309542
24.1200 0.6955423 9.9990489 1.0635684 -0.8587225 0.8542917 1.3357380
24.1400 0.7232340 10.0008390 1.0666274 -0.8469759 0.8546142 1.3401535
24.1600 0.7531153 10.0025188 1.0692403 -0.8345170 0.8550474 1.3441911
24.1800 0.7834113 10.0043197 1.0722252 -0.8213324 0.8555942 1.3478420
24.2000 0.8155133 10.0060486 1.0749420 -0.8074097 0.8562574 1.3510979
24.2200 0.8492200 10.0077165 1.0775355 -0.7927371 0.8570398 1.3539512
24.2400 0.8841303 10.0093837 1.0801020 -0.7773039 0.8579441 1.3563946
24.2600 0.9198068 10.0111123 1.0827712 -0.7611004 0.8589728 1.3584218
24.2800 0.9575144 10.0126841 1.0851977 -0.7441176 0.8601285 1.3600267
24.3000 0.9961695 10.0142760 1.0876317 -0.7263479 0.8614137 1.3612040
24.3200 1.0364421 10.0157671 1.0898861 -0.7077846 0.8628306 1.3619491
24.3400 1.0772683 10.0173100 1.0923363 -0.6884220 0.8643814 1.3622580
24.3600 1.1202693 10.0186515 1.0943607 -0.6682558 0.8660682 1.3621272
24.3800 1.1636319 10.0200601 1.0965939 -0.6472828 0.8678931 1.3615540
24.4000 1.2085580 10.0213301 1.0986575 -0.6255009 0.8698578 1.3605363
24.4200 1.2544199 10.0225599 1.1006840 -0.6029095 0.8719641 1.3590726
24.4400 1.3016394 10.0236697 1.1025287 -0.5795092 0.8742134 1.3571621
24.4600 1.3497884 10.0247097 1.1043558 -0.5553018 0.8766071 1.3548047
24.4800 1.3984616 10.0257287 1.1063084 -0.5302905 0.8791465 1.3520008
24.5000 1.4488416 10.0265496 1.1078284 -0.5044801 0.8818326 1.3487517
24.5200 1.4997532 10.0273125 1.1095024 -0.4778763 0.8846663 1.3450590
24.5400 1.5513393 10.0280150 1.1110629 -0.4504868 0.8876482 1.3409251
24.5600 1.6038085 10.0285869 1.1125643 -0.4223201 0.8907789 1.3363531
24.5800 1.6573835 10.0289947 1.1138151 -0.3933866 0.8940587 1.3313467
24.6000 1.7110078 10.0293736 1.1152769 -0.3636980 0.8974875 1.3259100
24.6200 1.7654662 10.0296191 1.1164510 -0.3332674 0.9010654 1.3200479
24.6400 1.8203930 10.0297395 1.1176588 -0.3021092 0.9047919 1.3137658
24.6600 1.8763758 10.0296426 1.1185760 -0.2702396 0.9086665 1.3070696
24.6800 1.9317167 10.0296017 1.1196788 -0.2376759 0.9126885 1.2999660
24.7000 1.9879091 10.0293323 1.1206075 -0.2044370 0.9168567 1.2924619
24.7200 2.0446872 10.0288884 1.1212744 -0.1705431 0.9211700 1.2845650
24.7400 2.1008435 10.0284371 1.1221569 -0.1360161 0.9256269 1.2762833
24.7600 2.1577778 10.0277459 1.1226933 -0.1008788 0.9302256 1.2676253
24.7800 2.2140493 10.0270288 1.1233911 -0.0651559 0.9349642 1.2586001
24.8000 2.2710954 10.0260452 1.1236793 -0.0288730 0.9398405 1.2492171
24.8200 2.3270276 10.0250856 1.1242085 0.0079426 0.9448520 1.2394862
24.8400 2.3833266 10.0238838 1.1244995 0.0452627 0.9499960 1.2294177
24.8600 2.4393035 10.0225643 1.1246108 0.0830576 0.9552697 1.2190220
24.8800 2.4943477 10.0211927 1.1248540 0.1212964 0.9606697 1.2083103
24.9000 2.5497301 10.0195499 1.1247403 0.1599471 0.9661927 1.1972938
24.9200 2.6035151 10.0179485 1.1248744 0.1989764 0.9718350 1.1859841
24.9400 2.6575916 10.0160633 1.1245758 0.2383502 0.9775926 1.1743929
24.9600 2.7104803 10.0141292 1.1243136 0.2780331 0.9834615 1.1625325
24.9800 2.7624123 10.0120850 1.1240453 0.3179889 0.9894372 1.1504151
25.0000 2.8133288 10.0099402 1.1236972 0.3581802 0.9955152 1.1380532
25.0200 2.8640905 10.0075341 1.1229745 0.3985690 1.0016905 1.1254594
25.0400 2.9127972 10.0051747 1.1225016 0.4391164 1.0079580 1.1126466
25.0600 2.9607008 10.0026447 1.1218017 0.4797826 1.0143126 1.0996276
25.0800 3.0075602 9.9999717 1.1209479 0.5205274 1.0207486 1.0864154
25.1000 3.0529819 9.9972137 1.1200417 0.5613096 1.0272604 1.0730229
25.1200 3.0969215 9.9943717 1.1190583 0.6020877 1.0338420 1.0594634
25.1400 3.1396189 9.9913877 1.1179422 0.6428197 1.0404874 1.0457497
25.1600 3.1806314 9.9883356 1.1167819 0.6834631 1.0471902 1.0318950
25.1800 3.2199286 9.9852210 1.1155179 0.7239751 1.0539440 1.0179121
25.2000 3.2579647 9.9819340 1.1141234 0.7643126 1.0607421 1.0038139
25.2200 3.2940617 9.9786224 1.1125792 0.8044324 1.0675777 0.9896132
25.2400 3.3282635 9.9752329 1.1110923 0.8442910 1.0744438 0.9753226
25.2600 3.3609300 9.9717257 1.1093560 0.8838452 1.0813334 0.9609546
25.2800 3.3914652 9.9681910 1.1076034 0.9230514 1.0882392 0.9465215
25.3000 3.4202709 9.9645456 1.1057395 0.9618665 1.0951539 0.9320353
25.3200 3.4471223 9.9608420 1.1037231 1.0002475 1.1020699 0.9175078
25.3400 3.4718392 9.9571004 1.1016524 1.0381516 1.1089797 0.9029507
25.3600 3.4943761 9.9533231 1.0995530 1.0755364 1.1158755 0.8883752
25.3800 3.5151708 9.9494380 1.0972299 1.1123602 1.1227497 0.8737924
25.4000 3.5336056 9.9455468 1.0949162 1.1485814 1.1295945 0.8592130
25.4200 3.5502712 9.9415516 1.0923680 1.1841594 1.1364018 0.8446472
25.4400 3.5641503 9.9376351 1.0899035 1.2190541 1.1431638 0.8301052
25.4600 3.5766938 9.9335281 1.0871180 1.2532262 1.1498725 0.8155966
25.4800 3.5862321 9.9295397 1.0844949 1.2866373 1.1565199 0.8011305
25.5000 3.5942380 9.9254043 1.0815831 1.3192500 1.1630979 0.7867159
25.5200 3.5996189 9.9213349 1.0786510 1.3510276 1.1695986 0.7723611
25.5400 3.6030837 9.9171850 1.0756134 1.3819349 1.1760138 0.7580742
25.5600 3.6041439 9.9130684 1.0724985 1.4119376 1.1823357 0.7438627
25.5800 3.6034548 9.9088576 1.0691904 1.4410027 1.1885562 0.7297337
25.6000 3.6004112 9.9046699 1.0658766 1.4690984 1.1946674 0.7156939
25.6200 3.5947751 9.9005686 1.0625581 1.4961945 1.2006614 0.7017493
25.6400 3.5876188 9.8963481 1.0590125 1.5222620 1.2065304 0.6879058
25.6600 3.5782980 9.8921414 1.0554069 1.5472735 1.2122667 0.6741685
25.6800 3.5668266 9.8879622 1.0517002 1.5712032 1.2178626 0.6605422
25.7000 3.5532274 9.8837973 1.0480135 1.5940266 1.2233106 0.6470310
25.7200 3.5378937 9.8796058 1.0441005 1.6157214 1.2286031 0.6336388
25.7400 3.5206416 9.8754083 1.0401842 1.6362665 1.2337330 0.6203687
25.7600 3.5012699 9.8712715 1.0362269 1.6556428 1.2386930 0.6072235
25.7800 3.4803864 9.8670941 1.0320595 1.6738330 1.2434760 0.5942054
25.8000 3.4573925 9.8629857 1.0279732 1.6908217 1.2480751 0.5813164
25.8200 3.4329536 9.8588392 1.0237571 1.7065951 1.2524836 0.5685575
25.8400 3.4071971 9.8546582 1.0192989 1.7211417 1.2566949 0.5559297
25.8600 3.3789787 9.8506524 1.0150899 1.7344516 1.2607027 0.5434332
25.8800 3.3503268 9.8464556 1.0105327 1.7465172 1.2645006 0.5310680
25.9000 3.3191956 9.8424819 1.0061756 1.7573325 1.2680827 0.5188335
25.9200 3.2876657 9.8383454 1.0014694 1.7668939 1.2714432 0.5067285
25.9400 3.2542833 9.8343299 0.9969174 1.7751996 1.2745765 0.4947517
25.9600 3.2199195 9.8302922 0.9922441 1.7822498 1.2774772 0.4829012
25.9800 3.1843353 9.8262973 0.9875237 1.7880469 1.2801402 0.4711746
26.0000 3.1477878 9.8222963 0.9828131 1.7925952 1.2825606 0.4595692
26.0200 3.1104633 9.8182891 0.9779595 1.7959011 1.2847338 0.4480821
26.0400 3.0723887 9.8142829 0.9730092 1.7979731 1.2866553 0.4367096
26.0600 3.0329608 9.8103905 0.9683009 1.7988214 1.2883210 0.4254481
26.0800 2.9934124 9.8064181 0.9633283 1.7984586 1.2897271 0.4142935
26.1000 2.9531407 9.8024884 0.9583650 1.7968991 1.2908700 0.4032412
26.1200 2.9123891 9.7985549 0.9534825 1.7941592 1.2917463 0.3922865
26.1400 2.8715366 9.7945922 0.9483914 1.7902572 1.2923530 0.3814246
26.1600 2.8297961 9.7907489 0.9434902 1.7852133 1.2926874 0.3706501
26.1800 2.7884390 9.7867916 0.9384710 1.7790496 1.2927470 0.3599575
26.2000 2.7468000 9.7828846 0.9334275 1.7717898 1.2925297 0.3493412
26.2200 2.7049382 9.7790160 0.9284907 1.7634596 1.2920337 0.3387953
26.2400 2.6632648 9.7751300 0.9235217 1.7540864 1.2912573 0.3283138
26.2600 2.6221899 9.7711673 0.9184007 1.7436991 1.2901994 0.3178905
26.2800 2.5809288 9.7672777 0.9135156 1.7323286 1.2888591 0.3075192
26.3000 2.5400761 9.7633857 0.9085539 1.7200068 1.2872357 0.2971934
26.3200 2.4998710 9.7594423 0.9035988 1.7067676 1.2853289 0.2869068
26.3400 2.4601089 9.7555105 0.8986823 1.6926460 1.2831388 0.2766528
26.3600 2.4208036 9.7515992 0.8938489 1.6776786 1.2806658 0.2664249
26.3800 2.3823816 9.7476367 0.8890235 1.6619032 1.2779105 0.2562168
26.4000 2.3448253 9.7436526 0.8841477 1.6453587 1.2748739 0.2460218
26.4200 2.3079960 9.7396642 0.8794539 1.6280853 1.2715573 0.2358337
26.4400 2.2720383 9.7356759 0.8747827 1.6101241 1.2679623 0.2256461
26.4600 2.2372063 9.7316515 0.8700759 1.5915175 1.2640909 0.2154527
26.4800 2.2033063 9.7276215 0.8655515 1.5723084 1.2599453 0.2052475
26.5000 2.1709455 9.7234924 0.8609521 1.5525407 1.2555282 0.1950246
26.5200 2.1393179 9.7194316 0.8565415 1.5322590 1.2508423 0.1847781
26.5400 2.1092502 9.7152832 0.8521267 1.5115087 1.2458909 0.1745025
26.5600 2.0801228 9.7111789 0.8479014 1.4903354 1.2406774 0.1641924
26.5800 2.0529879 9.7069271 0.8435308 1.4687854 1.2352057 0.1538428
26.6000 2.0268118 9.7027275 0.8394155 1.4469053 1.2294799 0.1434487
26.6200 2.0020155 9.6985086 0.8354204 1.4247419 1.2235042 0.1330056
26.6400 1.9790060 9.6942056 0.8313769 1.4023423 1.2172834 0.1225091
26.6600 1.9575940 9.6898442 0.8274825 1.3797537 1.2108223 0.1119554
26.6800 1.9375560 9.6854985 0.8236279 1.3570230 1.2041263 0.1013407
26.7000 1.9189307 9.6811342 0.8200451 1.3341973 1.1972006 0.0906618
26.7200 1.9023014 9.6766720 0.8163344 1.3113233 1.1900512 0.0799157
26.7400 1.8872758 9.6721655 0.8128179 1.2884476 1.1826838 0.0691000
26.7600 1.8736530 9.6676731 0.8094360 1.2656161 1.1751047 0.0582123
26.7800 1.8618354 9.6631107 0.8061230 1.2428747 1.1673204 0.0472510
26.8000 1.8516098 9.6585258 0.8029105 1.2202682 1.1593374 0.0362148
26.8200 1.8432214 9.6538624 0.7997867 1.1978411 1.1511627 0.0251026
26.8400 1.8366207 9.6491338 0.7967357 1.1756369 1.1428032 0.0139140
26.8600 1.8310012 9.6445052 0.7939344 1.1536986 1.1342662 0.0026490
26.8800 1.8280380 9.6396246 0.7910408 1.1320679 1.1255592 -0.0086920
26.9000 1.8256080 9.6349377 0.7884446 1.1107858 1.1166897 -0.0201083
26.9200 1.8258197 9.6299957 0.7857515 1.0898920 1.1076654 -0.0315986
26.9400 1.8270291 9.6251332 0.7833253 1.0694253 1.0984942 -0.0431610
26.9600 1.8299845 9.6202038 0.7808939 1.0494229 1.0891842 -0.0547935
26.9800 1.8343587 9.6152551 0.7786345 1.0299211 1.0797434 -0.0664933
27.0000 1.8402997 9.6102527 0.7764874 1.0109545 1.0701801 -0.0782573
27.0200 1.8478197 9.6052002 0.7743413 0.9925565 1.0605027 -0.0900821
27.0400 1.8566959 9.6001230 0.7723384 0.9747589 1.0507194 -0.1019636
27.0600 1.8667421 9.5950546 0.7704862 0.9575920 1.0408388 -0.1138975
27.0800 1.8785438 9.5898719 0.7685930 0.9410844 1.0308694 -0.1258788
27.1000 1.8910819 9.5847577 0.7670179 0.9252630 1.0208198 -0.1379023
27.1200 1.9055753 9.5794886 0.7651840 0.9101532 1.0106986 -0.1499624
27.1400 1.9203672 9.5743517 0.7637935 0.8957784 1.0005144 -0.1620529
27.1600 1.9369183 9.5690694 0.7622417 0.8821604 0.9902758 -0.1741675
27.1800 1.9543692 9.5637929 0.7608232 0.8693191 0.9799914 -0.1862993
27.2000 1.9727195 9.5585112 0.7595210 0.8572725 0.9696697 -0.1984412
27.2200 1.9919649 9.5532224 0.7582524 0.8460368 0.9593194 -0.2105856
27.2400 2.0120996 9.5479063 0.7570758 0.8356261 0.9489490 -0.2227248
27.2600 2.0331164 9.5425628 0.7558945 0.8260529 0.9385668 -0.2348506
27.2800 2.0545897 9.5372549 0.7548805 0.8173274 0.9281812 -0.2469546
27.3000 2.0769175 9.5319001 0.7538341 0.8094581 0.9178006 -0.2590282
27.3200 2.0997066 9.5265637 0.7528460 0.8024514 0.9074331 -0.2710625
27.3400 2.1233371 9.5211488 0.7518621 0.7963118 0.8970868 -0.2830484
27.3600 2.1467597 9.5158683 0.7510125 0.7910418 0.8867697 -0.2949766
27.3800 2.1710376 9.5104780 0.7501474 0.7866419 0.8764895 -0.3068376
27.4000 2.1950849 9.5052066 0.7493339 0.7831109 0.8662541 -0.3186219
27.4200 2.2199793 9.4997989 0.7484875 0.7804455 0.8560710 -0.3303197
27.4400 2.2446169 9.4944852 0.7476937 0.7786404 0.8459475 -0.3419212
27.4600 2.2688191 9.4892832 0.7470197 0.7776885 0.8358909 -0.3534166
27.4800 2.2938357 9.4839217 0.7461922 0.7775810 0.8259083 -0.3647960
27.5000 2.3183892 9.4786521 0.7454520 0.7783071 0.8160066 -0.3760494
27.5200 2.3426677 9.4734322 0.7446656 0.7798543 0.8061924 -0.3871669
27.5400 2.3665042 9.4682623 0.7440252 0.7822084 0.7964722 -0.3981388
27.5600 2.3904722 9.4630324 0.7432304 0.7853533 0.7868524 -0.4089552
27.5800 2.4135343 9.4579459 0.7424602 0.7892715 0.7773390 -0.4196065
27.6000 2.4367530 9.4527473 0.7416864 0.7939438 0.7679379 -0.4300830
27.6200 2.4586088 9.4477690 0.7409449 0.7993494 0.7586548 -0.4403755
27.6400 2.4806273 9.4426646 0.7400862 0.8054661 0.7494950 -0.4504747
27.6600 2.5012701 9.4377507 0.7393140 0.8122703 0.7404638 -0.4603716
27.6800 2.5218319 9.4327450 0.7384006 0.8197370 0.7315662 -0.4700575
27.7000 2.5412587 9.4278591 0.7374994 0.8278398 0.7228068 -0.4795237
27.7200 2.5597368 9.4230353 0.7366410 0.8365512 0.7141901 -0.4887622
27.7400 2.5774803 9.4182347 0.7356498 0.8458425 0.7057205 -0.4977649
27.7600 2.5940638 9.4135273 0.7346680 0.8556841 0.6974019 -0.5065243
27.7800 2.6101136 9.4087808 0.7335237 0.8660451 0.6892381 -0.5150332
27.8000 2.6241701 9.4042739 0.7325963 0.8768938 0.6812325 -0.5232847
27.8200 2.6380999 9.3996344 0.7313625 0.8881977 0.6733885 -0.5312723
27.8400 2.6504429 9.3951455 0.7301728 0.8999236 0.6657091 -0.5389900
27.8600 2.6614070 9.3907588 0.7289733 0.9120374 0.6581970 -0.5464323
27.8800 2.6713967 9.3863849 0.7276827 0.9245046 0.6508547 -0.5535939
27.9000 2.6802072 9.3820688 0.7262639 0.9372901 0.6436846 -0.5604702
27.9200 2.6872328 9.3779107 0.7249839 0.9503583 0.6366886 -0.5670570
27.9400 2.6936931 9.3736792 0.7234173 0.9636735 0.6298686 -0.5733506
27.9600 2.6981173 9.3696590 0.7219425 0.9771995 0.6232261 -0.5793478
27.9800 2.7013878 9.3656689 0.7203688 0.9909000 0.6167624 -0.5850460
28.0000 2.7032664 9.3617492 0.7187872 1.0047386 0.6104786 -0.5904430
28.0200 2.7041585 9.3578306 0.7169873 1.0186789 0.6043754 -0.5955373
28.0400 2.7028223 9.3541519 0.7153110 1.0326847 0.5984535 -0.6003279
28.0600 2.7009476 9.3503732 0.7133951 1.0467197 0.5927133 -0.6048142
28.0800 2.6966291 9.3468712 0.7116893 1.0607482 0.5871548 -0.6089963
28.1000 2.6919600 9.3432455 0.7095857 1.0747345 0.5817781 -0.6128750
28.1200 2.6848850 9.3398821 0.7077505 1.0886435 0.5765828 -0.6164514
28.1400 2.6772307 9.3364434 0.7055664 1.1024406 0.5715684 -0.6197272
28.1600 2.6675877 9.3331932 0.7035097 1.1160915 0.5667342 -0.6227049
28.1800 2.6565574 9.3300213 0.7013870 1.1295629 0.5620792 -0.6253873
28.2000 2.6445691 9.3268472 0.6990931 1.1428220 0.5576024 -0.6277778
28.2200 2.6305757 9.3238771 0.6969059 1.1558369 0.5533024 -0.6298804
28.2400 2.6154213 9.3209517 0.6946075 1.1685764 0.5491777 -0.6316997
28.2600 2.5995200 9.3179949 0.6920993 1.1810102 0.5452266 -0.6332407
28.2800 2.5812198 9.3153265 0.6898564 1.1931093 0.5414473 -0.6345090
28.3000 2.5625919 9.3125633 0.6872415 1.2048453 0.5378377 -0.6355106
28.3200 2.5421888 9.3099766 0.6847636 1.2161912 0.5343956 -0.6362521
28.3400 2.5202268 9.3075336 0.6823463 1.2271211 0.5311187 -0.6367405
28.3600 2.4979674 9.3050037 0.6796164 1.2376102 0.5280043 -0.6369833
28.3800 2.4737157 9.3027189 0.6770328 1.2476349 0.5250500 -0.6369884
28.4000 2.4487717 9.3004244 0.6743754 1.2571731 0.5222527 -0.6367642
28.4200 2.4222631 9.2983078 0.6717664 1.2662039 0.5196096 -0.6363195
28.4400 2.3954786 9.2961295 0.6688781 1.2747078 0.5171177 -0.6356633
28.4600 2.3667389 9.2942105 0.6662451 1.2826666 0.5147737 -0.6348052
28.4800 2.3375070 9.2922823 0.6634601 1.2900636 0.5125743 -0.6337549
28.5000 2.3073872 9.2904265 0.6606640 1.2968837 0.5105161 -0.6325226
28.5200 2.2763692 9.2886617 0.6577978 1.3031130 0.5085956 -0.6311187
28.5400 2.2440253 9.2870698 0.6550637 1.3087393 0.5068092 -0.6295539
28.5600 2.2118812 9.2853677 0.6520846 1.3137518 0.5051532 -0.6278390
28.5800 2.1777782 9.2839840 0.6493647 1.3181413 0.5036238 -0.6259851
28.6000 2.1436498 9.2825540 0.6464596 1.3219001 0.5022173 -0.6240036
28.6200 2.1092732 9.2811257 0.6434774 1.3250219 0.5009296 -0.6219058
28.6400 2.0732140 9.2799897 0.6407293 1.3275022 0.4997569 -0.6197033
28.6600 2.0375458 9.2787464 0.6378219 1.3293377 0.4986951 -0.6174077
28.6800 2.0007985 9.2777031 0.6349793 1.3305268 0.4977403 -0.6150307
28.7000 1.9642531 9.2766161 0.6319709 1.3310694 0.4968882 -0.6125840
28.7200 1.9264715 9.2757584 0.6292785 1.3309668 0.4961349 -0.6100793
28.7400 1.8890769 9.2748485 0.6263220 1.3302219 0.4954762 -0.6075282
28.7600 1.8510587 9.2740775 0.6234764 1.3288389 0.4949079 -0.6049425
28.7800 1.8128629 9.2733648 0.6206888 1.3268235 0.4944261 -0.6023336
28.8000 1.7744431 9.2727430 0.6178387 1.3241827 0.4940264 -0.5997129
28.8200 1.7360631 9.2721529 0.6150500 1.3209249 0.4937048 -0.5970917
28.8400 1.6972555 9.2717086 0.6122879 1.3170599 0.4934573 -0.5944810
28.8600 1.6587218 9.2712679 0.6095649 1.3125987 0.4932797 -0.5918917
28.8800 1.6201825 9.2709110 0.6067762 1.3075534 0.4931680 -0.5893345
28.9000 1.5819035 9.2705793 0.6040309 1.3019376 0.4931182 -0.5868198
28.9200 1.5430408 9.2704475 0.6014851 1.2957657 0.4931264 -0.5843575
28.9400 1.5050334 9.2702571 0.5987254 1.2890535 0.4931886 -0.5819575
28.9600 1.4670954 9.2701451 0.5961583 1.2818177 0.4933010 -0.5796291
28.9800 1.4294004 9.2701096 0.5935081 1.2740759 0.4934599 -0.5773816
29.0000 1.3917643 9.2701740 0.5910204 1.2658468 0.4936615 -0.5752234
29.0200 1.3548052 9.2702334 0.5884999 1.2571499 0.4939022 -0.5731630
29.0400 1.3181194 9.2703808 0.5859506 1.2480055 0.4941785 -0.5712080
29.0600 1.2817017 9.2706037 0.5835883 1.2384347 0.4944868 -0.5693660
29.0800 1.2461859 9.2708012 0.5811315 1.2284592 0.4948238 -0.5676438
29.1000 1.2109450 9.2710989 0.5787277 1.2181015 0.4951863 -0.5660478
29.1200 1.1757720 9.2715358 0.5764902 1.2073846 0.4955710 -0.5645839
29.1400 1.1421395 9.2718324 0.5741411 1.1963318 0.4959749 -0.5632577
29.1600 1.1085779 9.2722879 0.5718622 1.1849672 0.4963950 -0.5620738
29.1800 1.0757087 9.2727747 0.5696665 1.1733151 0.4968285 -0.5610367
29.2000 1.0435723 9.2732889 0.5675586 1.1613999 0.4972725 -0.5601501
29.2200 1.0121177 9.2738607 0.5653740 1.1492465 0.4977246 -0.5594173
29.2400 0.9813744 9.2744673 0.5633373 1.1368801 0.4981820 -0.5588408
29.2600 0.9519802 9.2750023 0.5611882 1.1243255 0.4986426 -0.5584227
29.2800 0.9224546 9.2757458 0.5593024 1.1116081 0.4991039 -0.5581645
29.3000 0.8944807 9.2763816 0.5573064 1.0987530 0.4995639 -0.5580671
29.3200 0.8669928 9.2771195 0.5553799 1.0857852 0.5000205 -0.5581307
29.3400 0.8406616 9.2778234 0.5535034 1.0727296 0.5004718 -0.5583551
29.3600 0.8148302 9.2786272 0.5517394 1.0596109 0.5009161 -0.5587393
29.3800 0.7907501 9.2792966 0.5498033 1.0464536 0.5013516 -0.5592820
29.4000 0.7665482 9.2801825 0.5481618 1.0332818 0.5017770 -0.5599810
29.4200 0.7439244 9.2809650 0.5464396 1.0201192 0.5021906 -0.5608338
29.4400 0.7221926 9.2817779 0.5447502 1.0069891 0.5025913 -0.5618371
29.4600 0.7016099 9.2825715 0.5430599 0.9939142 0.5029780 -0.5629872
29.4800 0.6815406 9.2834611 0.5415633 0.9809169 0.5033495 -0.5642798
29.5000 0.6630276 9.2842580 0.5399455 0.9680188 0.5037049 -0.5657101
29.5200 0.6450013 9.2851600 0.5384788 0.9552408 0.5040435 -0.5672727
29.5400 0.6285460 9.2859593 0.5369686 0.9426034 0.5043645 -0.5689617
29.5600 0.6129992 9.2867917 0.5354226 0.9301261 0.5046674 -0.5707708
29.5800 0.5979864 9.2877040 0.5341866 0.9178277 0.5049516 -0.5726933
29.6000 0.5844891 9.2885410 0.5326980 0.9057263 0.5052168 -0.5747217
29.6200 0.5723714 9.2892967 0.5313421 0.8938391 0.5054628 -0.5768483
29.6400 0.5603014 9.2902458 0.5300993 0.8821823 0.5056893 -0.5790651
29.6600 0.5504323 9.2909673 0.5286918 0.8707714 0.5058962 -0.5813635
29.6800 0.5406474 9.2918555 0.5275819 0.8596209 0.5060836 -0.5837345
29.7000 0.5326046 9.2926153 0.5262144 0.8487442 0.5062516 -0.5861690
29.7200 0.5253006 9.2934069 0.5251060 0.8381540 0.5064003 -0.5886573
29.7400 0.5188833 9.2942250 0.5239360 0.8278617 0.5065300 -0.5911896
29.7600 0.5138089 9.2949712 0.5227374 0.8178780 0.5066411 -0.5937558
29.7800 0.5098864 9.2956730 0.5216244 0.8082124 0.5067338 -0.5963454
29.8000 0.5064215 9.2964751 0.5205316 0.7988734 0.5068088 -0.5989478
29.8200 0.5045326 9.2971472 0.5194577 0.7898685 0.5068665 -0.6015522
29.8400 0.5033320 9.2978647 0.5184363 0.7812041 0.5069074 -0.6041477
29.8600 0.5034577 9.2985104 0.5172869 0.7728857 0.5069323 -0.6067232
29.8800 0.5040941 9.2992149 0.5164005 0.7649176 0.5069419 -0.6092675
29.9000 0.5062494 9.2998115 0.5152852 0.7573032 0.5069367 -0.6117693
29.9200 0.5089031 9.3004710 0.5143472 0.7500449 0.5069177 -0.6142173
29.9400 0.5126760 9.3010775 0.5134318 0.7431439 0.5068856 -0.6166001
29.9600 0.5175676 9.3016399 0.5123980 0.7366007 0.5068413 -0.6189065
29.9800 0.5231392 9.3022235 0.5114974 0.7304147 0.5067855 -0.6211252
30.0000 0.5296357 9.3027880 0.5105789 0.7245841 0.5067192 -0.6232450
30.0200 0.5372319 9.3032977 0.5096172 0.7191066 0.5066433 -0.6252547
30.0400 0.5457360 9.3037793 0.5087222 0.7139788 0.5065586 -0.6271435
30.0600 0.5545051 9.3043597 0.5078849 0.7091962 0.5064662 -0.6289005
30.0800 0.5648108 9.3047938 0.5069403 0.7047539 0.5063669 -0.6305150
30.1000 0.5753816 9.3053161 0.5061106 0.7006458 0.5062617 -0.6319767
30.1200 0.5874830 9.3056879 0.5051716 0.6968651 0.5061514 -0.6332754
30.1400 0.5994132 9.3062278 0.5043592 0.6934044 0.5060371 -0.6344012
30.1600 0.6129065 9.3066013 0.5034865 0.6902555 0.5059196 -0.6353445
30.1800 0.6266260 9.3070648 0.5026450 0.6874094 0.5057998 -0.6360958
30.2000 0.6414628 9.3074457 0.5017342 0.6848566 0.5056787 -0.6366464
30.2200 0.6563519 9.3079337 0.5009971 0.6825870 0.5055570 -0.6369875
30.2400 0.6727687 9.3082629 0.5000466 0.6805898 0.5054358 -0.6371109
30.2600 0.6890071 9.3087391 0.4992668 0.6788540 0.5053157 -0.6370088
30.2800 0.7063552 9.3091234 0.4984040 0.6773676 0.5051976 -0.6366738
30.3000 0.7241760 9.3095310 0.4975616 0.6761188 0.5050822 -0.6360988
30.3200 0.7426676 9.3099237 0.4966883 0.6750950 0.5049704 -0.6352774
30.3400 0.7614058 9.3103720 0.4959124 0.6742834 0.5048629 -0.6342034
30.3600 0.7806172 9.3108409 0.4950702 0.6736709 0.5047602 -0.6328713
30.3800 0.8009205 9.3112055 0.4941609 0.6732441 0.5046632 -0.6312759
30.4000 0.8212674 9.3116592 0.4933125 0.6729896 0.5045723 -0.6294128
30.4200 0.8416481 9.3121978 0.4925604 0.6728936 0.5044882 -0.6272777
30.4400 0.8633201 9.3125964 0.4915779 0.6729424 0.5044114 -0.6248672
30.4600 0.8844327 9.3131781 0.4908452 0.6731221 0.5043424 -0.6221781
30.4800 0.9065950 9.3136591 0.4899072 0.6734189 0.5042817 -0.6192081
30.5000 0.9290273 9.3141686 0.4890305 0.6738189 0.5042296 -0.6159550
30.5200 0.9512816 9.3147902 0.4882218 0.6743085 0.5041865 -0.6124175
30.5400 0.9739686 9.3154132 0.4873249 0.6748741 0.5041527 -0.6085948
30.5600 0.9973398 9.3159818 0.4863878 0.6755021 0.5041286 -0.6044863
30.5800 1.0203252 9.3166887 0.4855734 0.6761794 0.5041143 -0.6000923
30.6000 1.0437422 9.3173881 0.4846597 0.6768930 0.5041100 -0.5954136
30.6200 1.0674103 9.3181057 0.4837287 0.6776301 0.5041159 -0.5904513
30.6400 1.0910998 9.3188782 0.4828406 0.6783783 0.5041320 -0.5852072
30.6600 1.1146155 9.3197412 0.4819743 0.6791257 0.5041585 -0.5796836
30.6800 1.1387734 9.3205464 0.4809577 0.6798605 0.5041952 -0.5738833
30.7000 1.1623318 9.3215086 0.4800827 0.6805715 0.5042421 -0.5678094
30.7200 1.1865543 9.3223980 0.4791103 0.6812480 0.5042993 -0.5614658
30.7400 1.2099301 9.3234869 0.4782494 0.6818796 0.5043664 -0.5548567
30.7600 1.2342021 9.3244597 0.4771803 0.6824566 0.5044434 -0.5479867
30.7800 1.2574112 9.3256566 0.4763531 0.6829696 0.5045299 -0.5408610
30.8000 1.2814916 9.3267428 0.4752155 0.6834100 0.5046259 -0.5334849
30.8200 1.3047565 9.3279962 0.4743472 0.6837695 0.5047309 -0.5258646
30.8400 1.3278082 9.3293248 0.4733733 0.6840406 0.5048445 -0.5180062
30.8600 1.3515300 9.3305580 0.4722674 0.6842164 0.5049665 -0.5099165
30.8800 1.3739904 9.3320376 0.4713616 0.6842904 0.5050964 -0.5016025
30.9000 1.3966583 9.3335038 0.4703145 0.6842569 0.5052337 -0.4930715
30.9200 1.4193538 9.3349791 0.4692419 0.6841108 0.5053779 -0.4843311
30.9400 1.4412365 9.3366108 0.4682753 0.6838477 0.5055286 -0.4753894
30.9600 1.4632950 9.3382261 0.4671475 0.6834637 0.5056851 -0.4662543
30.9800 1.4847658 9.3399477 0.4661263 0.6829556 0.5058469 -0.4569345
31.0000 1.5058118 9.3417515 0.4650657 0.6823209 0.5060133 -0.4474384
31.0200 1.5264456 9.3436269 0.4640312 0.6815576 0.5061837 -0.4377749
31.0400 1.5472852 9.3454660 0.4628441 0.6806645 0.5063575 -0.4279529
31.0600 1.5668647 9.3475240 0.4617773 0.6796409 0.5065339 -0.4179816
31.0800 1.5864713 9.3495601 0.4607411 0.6784868 0.5067122 -0.4078701
31.1000 1.6056386 9.3516737 0.4595317 0.6772027 0.5068918 -0.3976277
31.1200 1.6243910 9.3538376 0.4584242 0.6757898 0.5070718 -0.3872637
31.1400 1.6422929 9.3561404 0.4572872 0.6742497 0.5072515 -0.3767875
31.1600 1.6600113 9.3584495 0.4561693 0.6725848 0.5074302 -0.3662086
31.1800 1.6772737 9.3608206 0.4549695 0.6707977 0.5076070 -0.3555362
31.2000 1.6939314 9.3632735 0.4537636 0.6688919 0.5077811 -0.3447797
31.2200 1.7097264 9.3658457 0.4526736 0.6668710 0.5079519 -0.3339483
31.2400 1.7257340 9.3683539 0.4513832 0.6647394 0.5081183 -0.3230513
31.2600 1.7402721 9.3710881 0.4502414 0.6625016 0.5082798 -0.3120976
31.2800 1.7549958 9.3737540 0.4489659 0.6601628 0.5084354 -0.3010961
31.3000 1.7689041 9.3765232 0.4477632 0.6577285 0.5085843 -0.2900557
31.3200 1.7819361 9.3794089 0.4465791 0.6552043 0.5087258 -0.2789850
31.3400 1.7947705 9.3822899 0.4452886 0.6525964 0.5088590 -0.2678923
31.3600 1.8069667 9.3852378 0.4440296 0.6499112 0.5089832 -0.2567858
31.3800 1.8185040 9.3882599 0.4427236 0.6471554 0.5090976 -0.2456734
31.4000 1.8292241 9.3913708 0.4415735 0.6443357 0.5092015 -0.2345628
31.4200 1.8399176 9.3944492 0.4401552 0.6414591 0.5092940 -0.2234616
31.4400 1.8495620 9.3976553 0.4389169 0.6385328 0.5093745 -0.2123767
31.4600 1.8585511 9.4009299 0.4376239 0.6355641 0.5094422 -0.2013150
31.4800 1.8675671 9.4041437 0.4362883 0.6325603 0.5094964 -0.1902831
31.5000 1.8752738 9.4075428 0.4349477 0.6295286 0.5095364 -0.1792871
31.5200 1.8827995 9.4109106 0.4336856 0.6264766 0.5095616 -0.1683330
31.5400 1.8898766 9.4143112 0.4322750 0.6234113 0.5095713 -0.1574263
31.5600 1.8961087 9.4178055 0.4309097 0.6203401 0.5095649 -0.1465721
31.5800 1.9017154 9.4213484 0.4296522 0.6172701 0.5095417 -0.1357753
31.6000 1.9073014 9.4248471 0.4281916 0.6142082 0.5095013 -0.1250403
31.6200 1.9116343 9.4285068 0.4269087 0.6111611 0.5094430 -0.1143712
31.6400 1.9161665 9.4320794 0.4254581 0.6081354 0.5093663 -0.1037717
31.6600 1.9196354 9.4357824 0.4241185 0.6051374 0.5092707 -0.0932453
31.6800 1.9229140 9.4394667 0.4226917 0.6021731 0.5091557 -0.0827948
31.7000 1.9257449 9.4431726 0.4213035 0.5992481 0.5090209 -0.0724229
31.7200 1.9277534 9.4469720 0.4199327 0.5963678 0.5088658 -0.0621318
31.7400 1.9295252 9.4507604 0.4185263 0.5935372 0.5086901 -0.0519234
31.7600 1.9311216 9.4545274 0.4170823 0.5907607 0.5084932 -0.0417991
31.7800 1.9320612 9.4583594 0.4156692 0.5880426 0.5082750 -0.0317603
31.8000 1.9321599 9.4622896 0.4143238 0.5853864 0.5080350 -0.0218076
31.8200 1.9329217 9.4660573 0.4127668 0.5827954 0.5077729 -0.0119416
31.8400 1.9321800 9.4700360 0.4114894 0.5802723 0.5074884 -0.0021624
31.8600 1.9318824 9.4738997 0.4099383 0.5778191 0.5071813 0.0075302
31.8800 1.9309629 9.4778197 0.4085742 0.5754376 0.5068513 0.0171365
31.9000 1.9298367 9.4817375 0.4071210 0.5731287 0.5064982 0.0266575
31.9200 1.9278571 9.4857643 0.4057550 0.5708931 0.5061218 0.0360941
31.9400 1.9267697 9.4895946 0.4041972 0.5687306 0.5057219 0.0454475
31.9600 1.9239632 9.4936877 0.4029031 0.5666405 0.5052984 0.0547194
31.9800 1.9222582 9.4975527 0.4013625 0.5646217 0.5048510 0.0639116
32.0000 1.9194908 9.5015680 0.3999909 0.5626722 0.5043796 0.0730259
32.0200 1.9169597 9.5055108 0.3985209 0.5607895 0.5038841 0.0820646
32.0400 1.9135967 9.5095672 0.3971890 0.5589706 0.5033645 0.0910300
32.0600 1.9110945 9.5134459 0.3956410 0.5572118 0.5028205 0.0999245
32.0800 1.9075555 9.5174757 0.3943057 0.5555088 0.5022521 0.1087509
32.1000 1.9042370 9.5214455 0.3928425 0.5538566 0.5016591 0.1175119
32.1200 1.9009647 9.5253764 0.3914655 0.5522499 0.5010416 0.1262102
32.1400 1.8970375 9.5294084 0.3900521 0.5506824 0.5003994 0.1348488
32.1600 1.8938012 9.5332931 0.3885951 0.5491477 0.4997325 0.1434306
32.1800 1.8895232 9.5373414 0.3873180 0.5476384 0.4990407 0.1519586
32.2000 1.8863120 9.5411871 0.3858101 0.5461468 0.4983240 0.1604358
32.2200 1.8820806 9.5451942 0.3845063 0.5446646 0.4975822 0.1688651
32.2400 1.8782938 9.5491100 0.3830971 0.5431831 0.4968154 0.1772494
32.2600 1.8743154 9.5530440 0.3817567 0.5416930 0.4960235 0.1855916
32.2800 1.8708018 9.5568826 0.3803595 0.5401845 0.4952062 0.1938945
32.3000 1.8664389 9.5608649 0.3790228 0.5386475 0.4943635 0.2021606
32.3200 1.8625657 9.5647413 0.3777666 0.5370714 0.4934954 0.2103926
32.3400 1.8588949 9.5685829 0.3763049 0.5354451 0.4926016 0.2185928
32.3600 1.8550696 9.5724329 0.3750529 0.5337575 0.4916820 0.2267634
32.3800 1.8510455 9.5763142 0.3737662 0.5319969 0.4907364 0.2349065
32.4000 1.8470406 9.5801854 0.3724706 0.5301513 0.4897647 0.2430239
32.4200 1.8435132 9.5839615 0.3711576 0.5282085 0.4887667 0.2511172
32.4400 1.8397786 9.5877670 0.3698880 0.5261561 0.4877422 0.2591878
32.4600 1.8358814 9.5915919 0.3686928 0.5239817 0.4866909 0.2672368
32.4800 1.8324165 9.5953372 0.3673558 0.5216723 0.4856126 0.2752650
32.5000 1.8283594 9.5991720 0.3662639 0.5192152 0.4845070 0.2832729
32.5200 1.8249591 9.6028894 0.3649393 0.5165975 0.4833739 0.2912608
32.5400 1.8215931 9.6065835 0.3637602 0.5138062 0.4822128 0.2992286
32.5600 1.8176096 9.6103814 0.3626260 0.5108284 0.4810235 0.3071760
32.5800 1.8140846 9.6140841 0.3614735 0.5076512 0.4798056 0.3151021
32.6000 1.8107854 9.6177365 0.3602570 0.5042618 0.4785587 0.3230060
32.6200 1.8068988 9.6214772 0.3591977 0.5006477 0.4772824 0.3308861
32.6400 1.8036550 9.6250890 0.3580291 0.4967962 0.4759762 0.3387408
32.6600 1.8000169 9.6287522 0.3569742 0.4926951 0.4746398 0.3465677
32.6800 1.7959718 9.6324732 0.3559336 0.4883325 0.4732726 0.3543645
32.7000 1.7928207 9.6360101 0.3548185 0.4836966 0.4718741 0.3621281
32.7200 1.7890207 9.6396408 0.3538142 0.4787761 0.4704438 0.3698554
32.7400 1.7852661 9.6432412 0.3527625 0.4735599 0.4689811 0.3775427
32.7600 1.7810991 9.6468838 0.3518670 0.4680375 0.4674855 0.3851859
32.7800 1.7775981 9.6503792 0.3508296 0.4621987 0.4659563 0.3927807
32.8000 1.7734531 9.6539591 0.3498833 0.4560340 0.4643931 0.4003222
32.8200 1.7693382 9.6574979 0.3489477 0.4495342 0.4627950 0.4078055
32.8400 1.7648202 9.6610698 0.3481137 0.4426908 0.4611616 0.4152249
32.8600 1.7607434 9.6645229 0.3471849 0.4354959 0.4594920 0.4225747
32.8800 1.7557981 9.6680927 0.3463336 0.4279421 0.4577858 0.4298487
32.9000 1.7513279 9.6715232 0.3455298 0.4200228 0.4560421 0.4370405
32.9200 1.7464155 9.6749899 0.3446896 0.4117321 0.4542602 0.4441431
32.9400 1.7410913 9.6784776 0.3439298 0.4030648 0.4524396 0.4511496
32.9600 1.7355691 9.6819438 0.3432303 0.3940163 0.4505795 0.4580525
32.9800 1.7302583 9.6853174 0.3424082 0.3845830 0.4486791 0.4648441
33.0000 1.7243180 9.6887377 0.3417859 0.3747620 0.4467378 0.4715166
33.0200 1.7181649 9.6921369 0.3410947 0.3645511 0.4447548 0.4780618
33.0400 1.7115737 9.6955481 0.3404626 0.3539493 0.4427296 0.4844712
33.0600 1.7052169 9.6988428 0.3398365 0.3429560 0.4406614 0.4907364
33.0800 1.6977780 9.7022641 0.3393142 0.3315718 0.4385494 0.4968486
33.1000 1.6907686 9.7055306 0.3387109 0.3197981 0.4363932 0.5027989
33.1200 1.6828949 9.7088761 0.3382236 0.3076371 0.4341921 0.5085783
33.1400 1.6752368 9.7120999 0.3376958 0.2950920 0.4319453 0.5141775
33.1600 1.6665011 9.7154364 0.3373276 0.2821670 0.4296525 0.5195874
33.1800 1.6581811 9.7186125 0.3368292 0.2688670 0.4273129 0.5247986
33.2000 1.6490013 9.7218564 0.3364704 0.2551980 0.4249262 0.5298020
33.2200 1.6395968 9.7250499 0.3361449 0.2411668 0.4224918 0.5345880
33.2400 1.6297422 9.7282361 0.3358190 0.2267813 0.4200092 0.5391474
33.2600 1.6196859 9.7313613 0.3355773 0.2120502 0.4174782 0.5434709
33.2800 1.6093699 9.7344438 0.3352543 0.1969830 0.4148984 0.5475492
33.3000 1.5982028 9.7375818 0.3351264 0.1815903 0.4122694 0.5513734
33.3200 1.5872284 9.7405872 0.3349270 0.1658834 0.4095912 0.5549344
33.3400 1.5755986 9.7436149 0.3348066 0.1498748 0.4068634 0.5582233
33.3600 1.5635167 9.7466261 0.3347511 0.1335774 0.4040860 0.5612315
33.3800 1.5514281 9.7495379 0.3346904 0.1170053 0.4012591 0.5639505
33.4000 1.5386551 9.7524782 0.3346909 0.1001732 0.3983825 0.5663722
33.4200 1.5261026 9.7552751 0.3346881 0.0830969 0.3954565 0.5684885
33.4400 1.5124361 9.7581804 0.3348311 0.0657926 0.3924813 0.5702918
33.4600 1.4989791 9.7609469 0.3349525 0.0482776 0.3894571 0.5717746
33.4800 1.4854831 9.7636242 0.3350437 0.0305696 0.3863844 0.5729301
33.5000 1.4711316 9.7663604 0.3353395 0.0126872 0.3832635 0.5737514
33.5200 1.4567295 9.7690143 0.3355812 -0.0053504 0.3800951 0.5742324
33.5400 1.4425479 9.7715302 0.3358569 -0.0235232 0.3768797 0.5743670
33.5600 1.4276732 9.7740857 0.3362237 -0.0418110 0.3736182 0.5741500
33.5800 1.4130037 9.7765134 0.3365780 -0.0601927 0.3703115 0.5735762
33.6000 1.3976807 9.7789747 0.3371007 -0.0786467 0.3669603 0.5726411
33.6200 1.3825275 9.7813214 0.3376090 -0.0971512 0.3635659 0.5713407
33.6400 1.3677795 9.7835154 0.3380112 -0.1156836 0.3601293 0.5696716
33.6600 1.3521736 9.7857872 0.3387080 -0.1342211 0.3566519 0.5676306
33.6800 1.3371693 9.7878748 0.3393110 -0.1527405 0.3531350 0.5652153
33.7000 1.3219324 9.7899380 0.3399800 -0.1712184 0.3495801 0.5624238
33.7200 1.3066826 9.7919358 0.3407604 -0.1896310 0.3459888 0.5592549
33.7400 1.2918271 9.7938015 0.3414857 -0.2079542 0.3423629 0.5557077
33.7600 1.2767564 9.7956482 0.3423865 -0.2261639 0.3387040 0.5517821
33.7800 1.2620702 9.7973764 0.3432105 -0.2442358 0.3350142 0.5474787
33.8000 1.2478212 9.7989692 0.3441735 -0.2621456 0.3312954 0.5427983
33.8200 1.2335282 9.8005371 0.3451044 -0.2798688 0.3275499 0.5377429
33.8400 1.2196621 9.8019830 0.3461811 -0.2973810 0.3237798 0.5323146
33.8600 1.2059933 9.8033659 0.3472665 -0.3146579 0.3199875 0.5265165
33.8800 1.1931633 9.8045650 0.3483568 -0.3316752 0.3161755 0.5203520
33.9000 1.1803241 9.8057494 0.3495557 -0.3484089 0.3123463 0.5138256
33.9200 1.1683244 9.8067624 0.3507620 -0.3648350 0.3085026 0.5069419
33.9400 1.1565397 9.8077292 0.3520810 -0.3809300 0.3046471 0.4997065
33.9600 1.1455763 9.8085459 0.3533292 -0.3966706 0.3007826 0.4921254
33.9800 1.1352755 9.8092387 0.3547248 -0.4120337 0.2969120 0.4842055
34.0000 1.1255877 9.8098317 0.3561366 -0.4269967 0.2930385 0.4759540
34.0200 1.1165612 9.8103210 0.3575836 -0.4415375 0.2891650 0.4673789
34.0400 1.1083567 9.8106802 0.3590890 -0.4556343 0.2852947 0.4584886
34.0600 1.1010303 9.8109068 0.3606186 -0.4692660 0.2814309 0.4492924
34.0800 1.0945490 9.8110123 0.3622059 -0.4824120 0.2775769 0.4397999
34.1000 1.0891337 9.8109622 0.3637988 -0.4950523 0.2737360 0.4300213
34.1200 1.0843715 9.8108444 0.3654289 -0.5071674 0.2699117 0.4199674
34.1400 1.0804673 9.8106154 0.3672507 -0.5187386 0.2661075 0.4096495
34.1600 1.0782677 9.8101359 0.3688450 -0.5297480 0.2623268 0.3990794
